#Wave		#Intensity
2109.224609	7604.942383
2107.712891	7623.136230
2106.201172	7692.592773
2104.687500	7641.332031
2103.175781	7613.233887
2101.662109	7575.232910
2100.150391	7495.943848
2098.636719	7669.417969
2097.123047	7532.341797
2095.607422	7697.478027
2094.093750	7641.341797
2092.578125	7639.692871
2091.064453	7593.494141
2089.548828	7680.939453
2088.033203	7610.011719
2086.517578	7662.787598
2085.000000	7534.192383
2083.484375	7493.010742
2081.966797	7702.329590
2080.449219	7621.587891
2078.931641	7613.358398
2077.414063	7555.727051
2075.894531	7537.636230
2074.376953	7539.307129
2072.857422	7638.078125
2071.337891	7417.593750
2069.818359	7547.604980
2068.298828	7753.217773
2066.777344	7662.755859
2065.257813	7628.229004
2063.736328	7587.142578
2062.214844	7667.678711
2060.693359	7674.247559
2059.171875	7713.665039
2057.648438	7610.190430
2056.126953	7616.767090
2054.603516	7611.850098
2053.080078	7580.676270
2051.556641	7661.092773
2050.033203	7598.752441
2048.507813	7520.037109
2046.984375	7580.737793
2045.458984	7615.181152
2043.933594	7484.062012
2042.408203	7739.740723
2040.882813	7600.459473
2039.355469	7724.960938
2037.830078	7444.901367
2036.302734	7631.601563
2034.775391	7536.661133
2033.248047	7664.342773
2031.718750	7512.165527
2030.191406	7674.152344
2028.662109	7466.428711
2027.134766	7665.966309
2025.605469	7615.281738
2024.076172	7721.533691
2022.544922	7496.000977
2021.015625	7510.738281
2019.484375	7638.179688
2017.955078	7466.702637
2016.423828	7523.889160
2014.892578	7476.575195
2013.359375	7582.697754
2011.828125	7556.603516
2010.294922	7566.411621
2008.761719	7630.039551
2007.230469	7489.802734
2005.695313	7559.941406
2004.162109	7581.149902
2002.628906	7550.200195
2001.093750	7586.065430
1999.558594	7587.706543
1998.023438	7501.402344
1996.488281	7661.002930
1994.953125	7538.905273
1993.417969	7595.892578
1991.880859	7592.647949
1990.343750	7613.808105
1988.806641	7643.091309
1987.269531	7578.043457
1985.732422	7578.057129
1984.193359	7545.560059
1982.656250	7519.577637
1981.117188	7480.607910
1979.578125	7591.104980
1978.039063	7613.852539
1976.500000	7636.590332
1974.958984	7600.875000
1973.417969	7570.043945
1971.878906	7537.603027
1970.337891	7649.568848
1968.796875	7651.187500
1967.253906	7732.269043
1965.712891	7429.054199
1964.169922	7479.348633
1962.626953	7565.276855
1961.083984	7573.392090
1959.541016	7519.944824
1957.998047	7694.889160
1956.455078	7596.098145
1954.910156	7447.161621
1953.365234	7536.223145
1951.820313	7578.317383
1950.275391	7636.572754
1948.730469	7620.394531
1947.183594	7631.715820
1945.638672	7668.902832
1944.091797	7651.110840
1942.544922	7670.499512
1940.998047	7529.909180
1939.449219	7562.238770
1937.902344	7628.473145
1936.353516	7584.870605
1934.804688	7575.190430
1933.255859	7746.299316
1931.707031	7588.118652
1930.158203	7518.745117
1928.607422	7515.539551
1927.058594	7523.624023
1925.507813	7763.896484
1923.957031	7601.041992
1922.406250	7660.679199
1920.853516	7673.560059
1919.302734	7483.439453
1917.750000	7515.680176
1916.197266	7572.063477
1914.644531	7670.283691
1913.091797	7631.636719
1911.539063	7525.412598
1909.984375	7638.061035
1908.431641	7708.835449
1906.876953	7525.460938
1905.322266	7655.725586
1903.767578	7570.506836
1902.210938	7549.617188
1900.656250	7642.832520
1899.099609	7584.983398
1897.542969	7699.033203
1895.986328	7649.225586
1894.429688	7525.580078
1892.873047	7626.727051
1891.314453	7479.063965
1889.755859	7588.200684
1888.199219	7554.510742
1886.640625	7548.102051
1885.080078	7601.028320
1883.521484	7567.356445
1881.960938	7621.858887
1880.402344	7581.785645
1878.841797	7488.855957
1877.281250	7601.007813
1875.720703	7506.510742
1874.158203	7724.291504
1872.597656	7543.360352
1871.035156	7554.570801
1869.472656	7488.966309
1867.910156	7688.967285
1866.347656	7589.770996
1864.783203	7656.932617
1863.220703	7584.965332
1861.656250	7551.392578
1860.091797	7594.546387
1858.527344	7552.996094
1856.962891	7664.823242
1855.396484	7578.554199
1853.832031	7545.017090
1852.265625	7586.528320
1850.699219	7576.945313
1849.132813	7592.898926
1847.566406	7699.787598
1845.998047	7624.785156
1844.431641	7623.174316
1842.863281	7642.292480
1841.294922	7613.578613
1839.726563	7643.846191
1838.156250	7589.647949
1836.587891	7766.475098
1835.017578	7659.710938
1833.449219	7581.655762
1831.878906	7578.462402
1830.306641	7592.779785
1828.736328	7608.682617
1827.166016	7615.031250
1825.593750	7667.509277
1824.021484	7562.512207
1822.449219	7584.766602
1820.876953	7716.705078
1819.304688	7670.571777
1817.730469	7757.940918
1816.158203	7740.415039
1814.583984	7632.356445
1813.009766	7648.213867
1811.435547	7672.002930
1809.859375	7673.557617
1808.285156	7665.588867
1806.708984	7638.582520
1805.132813	7641.728516
1803.556641	7668.664063
1801.980469	7694.002441
1800.404297	7624.205078
1798.826172	7670.146973
1797.248047	7796.890625
1795.671875	7692.258301
1794.093750	7704.890137
1792.513672	7749.191406
1790.935547	7627.216797
1789.355469	7643.019531
1787.777344	7663.563477
1786.197266	7642.956055
1784.617188	7644.505859
1783.035156	7758.356934
1781.455078	7658.671875
1779.873047	7702.904785
1778.292969	7797.701660
1776.710938	7769.187988
1775.128906	7693.284180
1773.544922	7720.093750
1771.962891	7716.883789
1770.378906	7772.099121
1768.794922	7797.295410
1767.212891	7675.690430
1765.626953	7850.810547
1764.042969	7822.330566
1762.458984	7626.659180
1760.873047	7684.975586
1759.287109	7741.689941
1757.701172	7729.019043
1756.115234	7751.026367
1754.529297	7596.543457
1752.941406	7668.980957
1751.355469	7753.987793
1749.767578	7651.566895
1748.179688	7887.681641
1746.591797	7841.940918
1745.001953	7671.894531
1743.414063	7860.652832
1741.824219	7553.817383
1740.234375	7706.347168
1738.644531	7909.128418
1737.054688	7915.316406
1735.462891	7753.326172
1733.873047	7882.112305
1732.281250	7988.848145
1730.689453	7872.495117
1729.097656	7767.183594
1727.505859	7966.508789
1725.912109	7892.615723
1724.320313	7925.472656
1722.726563	7956.746094
1721.132813	8082.129883
1719.539063	8141.587402
1717.945313	7953.263672
1716.349609	7989.206055
1714.755859	7885.633301
1713.160156	8046.940430
1711.564453	8096.939453
1709.968750	8095.225098
1708.371094	8181.211914
1706.775391	8115.283691
1705.177734	8168.354980
1703.580078	8227.663086
1701.982422	8083.527832
1700.384766	8310.221680
1698.787109	8289.692383
1697.187500	8275.425781
1695.587891	8440.959961
1693.990234	8290.676758
1692.390625	8243.599609
1690.789063	8268.414063
1689.189453	8341.642578
1687.587891	8347.683594
1685.988281	8330.299805
1684.386719	8472.156250
1682.785156	8398.564453
1681.181641	8410.827148
1679.580078	8616.540039
1677.976563	8709.859375
1676.373047	8630.039063
1674.769531	8587.671875
1673.166016	8761.993164
1671.562500	8822.473633
1669.957031	8783.206055
1668.353516	8887.273438
1666.748047	9123.680664
1665.142578	9029.873047
1663.537109	9138.489258
1661.929688	9233.051758
1660.324219	9467.626953
1658.716797	9501.400391
1657.109375	9560.046875
1655.501953	9867.493164
1653.894531	9891.830078
1652.285156	10329.651367
1650.677734	10273.061523
1649.068359	10356.339844
1647.458984	10694.357422
1645.849609	10740.233398
1644.240234	10876.154297
1642.628906	10999.596680
1641.019531	11012.780273
1639.408203	11086.479492
1637.796875	11175.663086
1636.185547	11367.185547
1634.572266	11206.580078
1632.960938	11388.709961
1631.347656	11499.452148
1629.734375	11424.161133
1628.121094	11520.901367
1626.507813	11612.952148
1624.894531	11852.107422
1623.279297	11837.196289
1621.664063	11991.046875
1620.048828	12307.361328
1618.433594	12377.476563
1616.818359	12371.746094
1615.203125	12471.207031
1613.585938	12691.257813
1611.968750	12796.791992
1610.351563	12889.912109
1608.734375	13216.376953
1607.117188	13332.545898
1605.498047	13689.672852
1603.878906	13696.022461
1602.261719	13815.099609
1600.640625	13846.120117
1599.021484	14057.730469
1597.402344	14193.626953
1595.781250	14128.880859
1594.162109	14417.422852
1592.541016	14294.046875
1590.919922	14235.484375
1589.296875	14334.194336
1587.675781	14271.022461
1586.052734	14423.615234
1584.429688	14297.282227
1582.806641	14412.833984
1581.183594	14308.115234
1579.560547	14489.818359
1577.935547	14463.631836
1576.312500	14422.065430
1574.687500	14311.275391
1573.062500	14282.063477
1571.435547	14343.607422
1569.810547	14279.032227
1568.183594	14351.308594
1566.558594	14472.739258
1564.931641	14577.211914
1563.304688	14509.565430
1561.675781	14726.115234
1560.048828	14716.820313
1558.419922	14948.584961
1556.791016	14862.491211
1555.162109	15049.615234
1553.533203	15209.039063
1551.904297	15109.133789
1550.273438	15156.510742
1548.642578	15050.524414
1547.011719	15059.563477
1545.380859	15054.802734
1543.750000	14797.190430
1542.119141	14555.009766
1540.486328	14446.195313
1538.853516	14308.329102
1537.220703	14259.326172
1535.587891	14250.143555
1533.955078	14136.892578
1532.320313	14152.219727
1530.685547	14032.916016
1529.052734	13999.313477
1527.416016	13913.733398
1525.781250	13910.745117
1524.146484	13426.282227
1522.509766	13337.820313
1520.873047	13315.091797
1519.236328	13362.637695
1517.599609	13359.765625
1515.962891	13143.133789
1514.324219	13224.266602
1512.687500	13390.830078
1511.048828	13369.638672
1509.410156	13174.544922
1507.771484	13060.369141
1506.130859	12860.848633
1504.492188	12633.970703
1502.851563	12533.700195
1501.210938	12325.275391
1499.570313	12482.595703
1497.927734	12386.989258
1496.287109	12521.381836
1494.644531	12328.361328
1493.001953	12321.136719
1491.359375	11976.046875
1489.716797	11982.594727
1488.074219	11700.096680
1486.429688	11667.154297
1484.785156	11740.667969
1483.140625	11444.718750
1481.496094	11471.128906
1479.851563	11436.740234
1478.207031	11388.692383
1476.560547	11448.510742
1474.914063	11412.627930
1473.267578	11487.596680
1471.621094	11450.201172
1469.972656	11526.645508
1468.326172	11310.209961
1466.677734	11366.927734
1465.029297	11359.919922
1463.380859	11495.451172
1461.732422	11511.156250
1460.082031	11829.993164
1458.431641	12041.100586
1456.783203	11980.922852
1455.132813	11957.123047
1453.480469	11957.563477
1451.830078	11680.929688
1450.177734	11702.619141
1448.527344	11451.886719
1446.875000	11594.660156
1445.220703	11365.235352
1443.568359	11164.645508
1441.916016	11263.534180
1440.261719	11239.927734
1438.607422	11279.809570
1436.953125	11161.007813
1435.298828	11010.529297
1433.642578	10912.981445
1431.988281	11054.074219
1430.332031	10778.401367
1428.675781	10706.625977
1427.019531	10693.736328
1425.361328	10483.197266
1423.705078	10269.732422
1422.046875	10160.421875
1420.388672	10209.478516
1418.730469	10238.916016
1417.072266	10266.833008
1415.412109	10079.257813
1413.753906	10205.119141
1412.093750	10041.736328
1410.433594	10306.086914
1408.773438	10499.562500
1407.111328	10580.062500
1405.451172	10716.206055
1403.789063	11077.972656
1402.126953	11221.467773
1400.464844	11385.954102
1398.802734	11290.250977
1397.138672	11481.707031
1395.474609	11434.116211
1393.812500	11299.395508
1392.146484	11269.889648
1390.482422	11057.161133
1388.818359	10874.556641
1387.152344	10716.050781
1385.486328	10836.788086
1383.820313	10951.468750
1382.154297	10880.063477
1380.488281	11212.176758
1378.820313	11443.668945
1377.154297	11703.544922
1375.486328	11964.805664
1373.818359	11900.744141
1372.148438	12245.750977
1370.480469	12073.798828
1368.810547	11868.972656
1367.140625	11821.455078
1365.470703	11754.496094
1363.800781	11716.001953
1362.130859	11614.676758
1360.458984	11446.074219
1358.787109	11590.144531
1357.115234	11604.052734
1355.443359	11751.013672
1353.771484	11912.855469
1352.097656	12173.254883
1350.423828	12357.341797
1348.751953	12578.689453
1347.076172	12799.939453
1345.402344	13161.439453
1343.728516	13489.939453
1342.052734	13970.520508
1340.376953	14215.138672
1338.701172	14493.958984
1337.025391	14871.089844
1335.347656	15087.014648
1333.671875	15277.499023
1331.994141	15582.663086
1330.316406	15607.547852
1328.638672	15212.297852
1326.960938	15280.445313
1325.281250	15049.244141
1323.601563	14938.737305
1321.921875	14822.323242
1320.242188	14796.736328
1318.562500	14451.276367
1316.880859	14259.179688
1315.201172	13905.064453
1313.519531	13542.182617
1311.837891	13311.759766
1310.154297	12958.083008
1308.472656	12692.227539
1306.789063	12352.210938
1305.105469	12070.266602
1303.421875	11791.415039
1301.738281	11607.696289
1300.054688	11375.078125
1298.369141	11285.015625
1296.683594	11094.110352
1294.998047	10835.057617
1293.312500	10760.000000
1291.626953	10530.786133
1289.939453	10473.614258
1288.253906	10246.043945
1286.566406	10231.924805
1284.878906	10167.447266
1283.189453	10140.020508
1281.501953	10245.860352
1279.812500	10234.709961
1278.123047	10225.042969
1276.433594	10247.931641
1274.744141	10125.836914
1273.052734	10201.978516
1271.363281	10103.604492
1269.671875	10051.100586
1267.980469	9815.348633
1266.289063	9866.366211
1264.595703	9853.835938
1262.904297	9740.873047
1261.210938	9712.129883
1259.517578	9652.395508
1257.824219	9471.652344
1256.128906	9475.451172
1254.435547	9603.177734
1252.740234	9525.816406
1251.044922	9470.608398
1249.349609	9459.656250
1247.652344	9464.922852
1245.957031	9406.815430
1244.259766	9513.752930
1242.562500	9317.190430
1240.865234	9441.771484
1239.167969	9523.596680
1237.468750	9308.022461
1235.769531	9261.795898
1234.072266	9097.874023
1232.371094	9285.619141
1230.671875	9114.409180
1228.972656	9125.610352
1227.271484	9094.172852
1225.570313	9130.358398
1223.869141	9207.671875
1222.167969	9070.456055
1220.464844	9113.963867
1218.763672	9007.666016
1217.060547	9077.593750
1215.357422	9006.578125
1213.654297	8928.254883
1211.949219	8896.916016
1210.246094	8803.982422
1208.541016	8904.669922
1206.835938	8914.407227
1205.130859	8979.841797
1203.423828	8888.434570
1201.718750	8915.749023
1200.011719	8841.974609
1198.304688	8730.153320
1196.597656	8786.766602
1194.888672	8929.722656
1193.181641	8787.219727
1191.472656	8933.036133
1189.763672	9018.807617
1188.054688	8896.853516
1186.343750	8747.169922
1184.634766	8692.578125
1182.923828	8567.853516
1181.212891	8722.286133
1179.501953	8853.272461
1177.791016	8886.338867
1176.078125	8745.615234
1174.365234	8726.130859
1172.652344	8624.915039
1170.939453	8707.615234
1169.226563	8660.429688
1167.511719	8619.098633
1165.798828	8477.162109
1164.083984	8553.985352
1162.369141	8445.651367
1160.652344	8468.524414
1158.937500	8390.853516
1157.220703	8263.690430
1155.503906	8333.189453
1153.787109	8115.821289
1152.070313	8039.751953
1150.351563	7954.983887
1148.632813	8011.391602
1146.916016	8022.676758
1145.195313	7988.870605
1143.476563	7979.797363
1141.757813	7954.736816
1140.037109	8095.373047
1138.316406	7813.104492
1136.595703	7869.448730
1134.875000	7644.000977
1133.152344	7847.016113
1131.429688	7586.831055
1129.708984	7532.864746
1127.984375	7531.161621
1126.261719	7433.707520
1124.539063	7376.909180
1122.814453	7440.494629
1121.089844	7472.155273
1119.365234	7338.563477
1117.640625	7342.698242
1115.914063	7223.682617
1114.187500	7226.391602
1112.462891	7130.625000
1110.734375	7142.039063
1109.007813	7130.287598
1107.281250	6985.402344
1105.552734	7080.754883
1103.824219	6889.657715
1102.095703	7015.356934
1100.367188	7052.801758
1098.636719	7072.883301
1096.908203	7087.174316
1095.177734	7108.682129
1093.447266	7020.395508
1091.714844	7017.355469
1089.984375	7069.183594
1088.251953	6985.294434
1086.519531	6917.318359
1084.787109	6989.332031
1083.054688	7000.724609
1081.320313	6840.486328
1079.585938	6844.696777
1077.851563	6750.877930
1076.117188	6773.841797
1074.382813	6687.284668
1072.648438	6659.830566
1070.912109	6590.620605
1069.175781	6636.636230
1067.439453	6589.055664
1065.701172	6568.842773
1063.964844	6596.123047
1062.226563	6449.317871
1060.488281	6574.415527
1058.750000	6582.980469
1057.011719	6584.353027
1055.271484	6487.987305
1053.531250	6575.597656
1051.791016	6499.389648
1050.050781	6589.829102
1048.310547	6592.630859
1046.568359	6486.320313
1044.826172	6496.319336
1043.083984	6583.804199
1041.341797	6526.345215
1039.599609	6696.973633
1037.855469	6726.989258
1036.113281	6640.861328
1034.369141	6680.908203
1032.623047	6740.998535
1030.878906	6795.330078
1029.132813	6775.151855
1027.386719	6759.278320
1025.640625	6892.311035
1023.894531	6777.650391
1022.148438	6771.802734
1020.400391	6857.524414
1018.652344	6997.561035
1016.904297	6900.139648
1015.156250	6891.407227
1013.406250	6838.365234
1011.658203	6846.798828
1009.908203	6766.643555
1008.158203	6923.645508
1006.408203	6867.786133
1004.656250	6784.824219
1002.904297	6788.974121
1001.152344	6864.477539
999.400391	6978.469238
997.648438	7032.496094
995.896484	6960.996582
994.142578	6798.277832
992.388672	6926.431641
990.634766	7054.525879
988.878906	7055.750977
987.125000	7195.150879
985.369141	7189.220703
983.613281	7022.397461
981.857422	7110.460449
980.099609	6908.151367
978.343750	7084.415527
976.585938	7190.893555
974.828125	7192.079102
973.070313	7012.685059
971.310547	6989.743164
969.552734	6820.425781
967.792969	6960.939453
966.033203	6949.387695
964.273438	6908.016113
962.511719	7102.366699
960.750000	7251.200195
958.990234	7181.399902
957.226563	7250.685547
955.464844	7156.800293
953.703125	7175.000488
951.939453	7146.399414
950.175781	6825.783691
948.412109	6681.058594
946.648438	6671.010254
944.882813	6530.636230
943.117188	6570.196289
941.351563	6506.371582
939.585938	6483.629395
937.820313	6613.750488
936.052734	6515.998535
934.285156	6493.268066
932.517578	6394.173828
930.750000	6490.256348
928.982422	6355.865723
927.212891	6454.738281
925.443359	6444.761719
923.673828	6544.979492
921.904297	6674.809082
920.132813	6695.851563
918.361328	6616.652344
916.591797	6517.729980
914.818359	6358.178223
913.046875	6235.378418
911.275391	6222.645996
909.501953	6308.623047
907.728516	6357.906250
905.955078	6355.017578
904.179688	6388.766113
902.406250	6321.067871
900.630859	6528.043457
898.855469	6589.888184
897.080078	6451.800293
895.302734	6536.151367
893.525391	6426.281250
891.750000	6443.072266
889.970703	6267.169922
888.193359	6369.762695
886.416016	6400.611328
884.636719	6105.375000
882.857422	6172.803223
881.078125	6219.126953
879.296875	6074.417969
877.517578	5959.263184
875.736328	5963.487793
873.955078	6009.814941
872.173828	5953.687500
870.390625	5837.263672
868.609375	5924.258789
866.826172	5941.103516
865.042969	5980.369141
863.259766	5929.917480
861.474609	5876.686523
859.689453	6021.004883
857.904297	6035.002930
856.119141	5988.784180
854.333984	5913.187988
852.546875	5980.383789
850.761719	6124.505859
848.974609	6060.121094
847.185547	6022.338867
845.398438	6039.105957
843.609375	5978.978516
841.822266	5958.011230
840.031250	5840.641113
838.242188	5942.646973
836.453125	5999.912598
834.662109	5833.742676
832.871094	5977.556152
831.080078	5937.076172
829.289063	5874.289551
827.496094	5863.146973
825.703125	5905.005859
823.910156	5853.423828
822.117188	5928.720703
820.324219	5804.684570
818.529297	5900.856934
816.734375	5913.401367
814.939453	5931.510254
813.144531	5959.356445
811.347656	5942.644043
809.550781	5850.785645
807.755859	5754.795898
805.957031	5828.560547
804.160156	5743.745605
802.361328	5656.189453
800.564453	5620.107422
798.765625	5603.498047
796.964844	5584.116699
795.166016	5596.693848
793.365234	5703.701172
791.564453	5705.135254
789.763672	5825.946777
787.962891	5759.348633
786.160156	5777.416504
784.359375	5703.924316
782.556641	5619.371582
780.751953	5640.231445
778.949219	5582.069336
777.144531	5600.155273
775.339844	5626.545410
773.535156	5578.122559
771.730469	5576.807129
769.925781	5567.184570
768.119141	5542.339844
766.312500	5581.164551
764.505859	5621.353516
762.697266	5539.800293
760.890625	5646.358398
759.082031	5631.199707
757.273438	5574.580078
755.464844	5679.670898
753.654297	5788.856445
751.845703	5906.277832
750.035156	5949.072266
748.224609	6161.660645
746.412109	6375.528809
744.601563	6636.213379
742.789063	7014.042969
740.976563	8077.207520
739.164063	9688.702148
737.349609	12132.139648
735.537109	14890.056641
733.722656	17449.613281
731.908203	18688.146484
730.091797	18112.125000
728.277344	16210.301758
726.460938	13139.185547
724.644531	10479.680664
722.828125	8653.940430
721.009766	7571.952637
719.193359	6731.169434
717.375000	6410.559570
715.556641	6136.841797
713.736328	6000.695313
711.917969	5846.749023
710.097656	5717.603027
708.277344	5778.052246
706.457031	5624.267090
704.636719	5688.827148
702.814453	5588.660645
700.992188	5536.565918
699.169922	5628.535645
697.347656	5719.089844
695.523438	5806.857910
693.699219	6009.733887
691.875000	5950.746582
690.050781	6026.063965
688.226563	6005.455078
686.400391	6008.137695
684.574219	5927.296875
682.748047	5786.263184
680.921875	5895.742188
679.095703	5812.247559
677.267578	5719.216797
675.439453	5659.051758
673.611328	5678.215820
671.781250	5626.289551
669.953125	5683.716309
668.123047	5727.452148
666.292969	5619.545898
664.460938	5724.729004
662.630859	5634.622559
660.798828	5758.860352
658.966797	5769.772461
657.134766	5843.437988
655.302734	5848.867676
653.468750	5930.660645
651.634766	5852.901367
649.800781	5955.098633
647.966797	6009.552246
646.130859	6020.382813
644.294922	6017.587402
642.458984	5980.749512
640.623047	6051.479980
638.787109	5937.068359
636.949219	5942.458008
635.111328	5956.006836
633.273438	5987.230957
631.435547	6064.671875
629.595703	5917.763672
627.757813	5966.641602
625.917969	5951.631348
624.076172	5810.287598
622.236328	5879.527344
620.394531	5846.895020
618.552734	5730.111328
616.710938	5620.168457
614.869141	5609.330078
613.025391	5606.635742
611.183594	5466.962891
609.339844	5408.710449
607.494141	5408.775879
605.650391	5399.353516
603.804688	5463.102051
601.958984	5361.557129
600.113281	5376.528809
598.267578	5358.997559
596.419922	5421.339844
594.572266	5264.413574
592.724609	5371.396484
590.876953	5265.958008
589.027344	5216.016113
587.179688	5245.866699
585.330078	5151.346191
583.480469	5144.710449
581.628906	5150.236816
579.779297	5115.237793
577.927734	5170.733398
576.076172	5330.158691
574.222656	5386.924805
572.371094	5542.173340
570.517578	5648.778809
568.664063	5721.612793
566.810547	5650.124023
564.955078	5574.625000
563.101563	5522.074707
561.246094	5512.669434
559.390625	5454.769043
557.533203	5493.871094
555.677734	5352.516602
553.820313	5277.194336
551.962891	5262.473145
550.105469	5313.691895
548.246094	5305.694824
546.386719	5280.216797
544.527344	5272.230469
542.667969	5280.379395
540.808594	5316.747070
538.947266	5244.261719
537.085938	5300.770020
535.224609	5351.878906
533.363281	5239.155273
531.500000	5194.945801
529.638672	5138.678711
527.775391	5055.604004
525.910156	5070.490723
524.046875	5243.617188
522.181641	5494.424316
520.316406	5905.963379
518.451172	5761.157227
516.585938	5270.752441
514.718750	5059.193359
512.851563	4997.720215
510.984375	4902.805176
509.117188	4828.012695
507.250000	4813.474609
505.380859	4796.267578
503.511719	4845.945801
501.642578	4757.865234
499.771484	4959.936035
497.902344	4784.991211
496.031250	4818.588379
494.160156	4711.894043
492.287109	4710.765137
490.416016	4728.331055
488.542969	4783.268066
486.669922	4802.142090
484.796875	4763.629883
482.921875	4862.540527
481.046875	4828.032715
479.171875	4618.867188
477.296875	4747.068359
475.421875	4765.922363
473.544922	4630.204590
471.667969	4650.408691
469.791016	4646.630859
467.914063	4700.107910
466.035156	4726.936035
464.156250	4673.900391
462.277344	4779.221680
460.398438	4627.764160
458.519531	4690.489258
456.638672	4674.739746
454.757813	4706.850586
452.876953	4680.473145
450.994141	4687.322754
449.113281	4662.290527
447.230469	4649.221191
445.347656	4673.332520
443.462891	4609.827637
441.580078	4647.206055
439.695313	4642.112305
437.810547	4719.255859
435.925781	4708.842285
434.039063	4601.654297
432.152344	4669.473633
430.267578	4682.930664
428.378906	4716.252930
426.492188	4644.925293
424.603516	4573.631836
422.714844	4694.328613
420.826172	4645.557129
418.937500	4615.333008
417.046875	4713.443359
415.158203	4609.153320
413.265625	4609.371094
411.375000	4657.177734
409.484375	4601.875488
407.591797	4649.660645
405.699219	4644.583496
403.806641	4569.512695
401.912109	4644.998535
400.019531	4548.842773
