#Wave		#Intensity
2109.224609	6389.276367
2107.712891	6276.806641
2106.201172	6402.776855
2104.687500	6219.535156
2103.175781	6259.513184
2101.662109	6286.253418
2100.150391	6169.242676
2098.636719	6209.206055
2097.123047	6221.076660
2095.607422	6198.269531
2094.093750	6218.391602
2092.578125	6195.594727
2091.064453	6222.309082
2089.548828	6133.533691
2088.033203	6216.327148
2086.517578	6074.824219
2085.000000	6202.107422
2083.484375	6176.047363
2081.966797	6184.604492
2080.449219	6316.724609
2078.931641	6221.474609
2077.414063	6330.474121
2075.894531	6322.525879
2074.376953	6210.874512
2072.857422	6237.517090
2071.337891	6152.258789
2069.818359	6318.733887
2068.298828	6143.035156
2066.777344	6242.021484
2065.257813	6071.347168
2063.736328	6222.903320
2062.214844	6185.414551
2060.693359	6216.945313
2059.171875	6161.405273
2057.648438	6258.617676
2056.126953	6194.882813
2054.603516	6165.647949
2053.080078	6284.132813
2051.556641	6268.017578
2050.033203	6278.157227
2048.507813	6155.441406
2046.984375	6295.144043
2045.458984	6067.553223
2043.933594	6274.417480
2042.408203	6227.188965
2040.882813	6076.763184
2039.355469	6260.560059
2037.830078	6142.944336
2036.302734	6315.187012
2034.775391	6186.151367
2033.248047	6158.642090
2031.718750	6155.688965
2030.191406	6075.848145
2028.662109	6175.955078
2027.134766	6173.000000
2025.605469	6107.920410
2024.076172	6225.936035
2022.544922	6084.066406
2021.015625	6146.486328
2019.484375	6287.287109
2017.955078	6122.630859
2016.423828	6180.104492
2014.892578	6131.444336
2013.359375	6105.654785
2011.828125	6053.768066
2010.294922	6127.520996
2008.761719	6145.786621
2007.230469	6097.185547
2005.695313	6066.539063
2004.162109	6081.545898
2002.628906	6158.473145
2001.093750	6214.186523
1999.558594	6062.998047
1998.023438	6040.534180
1996.488281	6151.598145
1994.953125	5989.123535
1993.417969	6082.247559
1991.880859	6129.769531
1990.343750	6167.509766
1988.806641	6200.354492
1987.269531	6070.565918
1985.732422	6132.682129
1984.193359	6115.122070
1982.656250	6081.318359
1981.117188	6060.527344
1979.578125	6143.710449
1978.039063	6204.120117
1976.500000	6074.523438
1974.958984	6087.842773
1973.417969	6200.164551
1971.878906	6065.782715
1970.337891	6074.228027
1968.796875	6176.748535
1967.253906	5995.427734
1965.712891	6031.445313
1964.169922	6013.954102
1962.626953	6132.606445
1961.083984	6166.951172
1959.541016	6024.704102
1957.998047	6034.762695
1956.455078	6056.151855
1954.910156	6108.291504
1953.365234	6123.181641
1951.820313	6037.732910
1950.275391	6041.305664
1948.730469	5986.644043
1947.183594	6025.805176
1945.638672	5990.572266
1944.091797	6016.783203
1942.544922	6051.063965
1940.998047	6040.085938
1939.449219	6019.418945
1937.902344	6121.514160
1936.353516	6002.333984
1934.804688	6091.473633
1933.255859	6043.372559
1931.707031	6032.409180
1930.158203	5889.145996
1928.607422	6116.961914
1927.058594	5976.966797
1925.507813	6048.260742
1923.957031	6132.420898
1922.406250	6018.299316
1920.853516	5923.562988
1919.302734	6057.638672
1917.750000	6083.738770
1916.197266	6069.567871
1914.644531	6074.723145
1913.091797	5975.244629
1911.539063	6033.526855
1909.984375	6088.565918
1908.431641	6088.886230
1906.876953	6139.064941
1905.322266	6097.565918
1903.767578	5993.384766
1902.210938	6082.127441
1900.656250	5891.216309
1899.099609	6028.141602
1897.542969	6057.386719
1895.986328	5911.568359
1894.429688	6088.542969
1892.873047	6045.517578
1891.314453	6012.140137
1889.755859	5977.172363
1888.199219	5937.406250
1886.640625	6025.970703
1885.080078	6019.886230
1883.521484	6005.787598
1881.960938	6039.782227
1880.402344	5955.171387
1878.841797	5897.834473
1877.281250	5949.450684
1875.720703	6135.575684
1874.158203	6060.622559
1872.597656	6001.709961
1871.035156	5825.982422
1869.472656	6045.580078
1867.910156	6058.701172
1866.347656	5996.639160
1864.783203	5993.772949
1863.220703	6040.472168
1861.656250	6053.582520
1860.091797	5878.102051
1858.527344	6019.068359
1856.962891	6016.199219
1855.396484	6115.549805
1853.832031	6032.819824
1852.265625	5974.071777
1850.699219	6004.732910
1849.132813	6091.234863
1847.566406	6148.980957
1845.998047	5980.192383
1844.431641	6028.368164
1842.863281	6071.740234
1841.294922	5974.810059
1839.726563	6005.423828
1838.156250	5927.669434
1836.587891	5924.824707
1835.017578	6100.372559
1833.449219	5998.760254
1831.878906	5995.901367
1830.306641	5946.881836
1828.736328	5904.248535
1827.166016	6006.423340
1825.593750	6092.647461
1824.021484	5967.307129
1822.449219	6067.813477
1820.876953	6090.378418
1819.304688	5931.739258
1817.730469	6125.944824
1816.158203	6159.604004
1814.583984	6023.287598
1813.009766	6199.880859
1811.435547	6004.866699
1809.859375	5975.024902
1808.285156	6080.097656
1806.708984	5977.262207
1805.132813	5977.586426
1803.556641	6019.147949
1801.980469	6002.019531
1800.404297	5983.312500
1798.826172	6002.654785
1797.248047	6028.327637
1795.671875	5957.341309
1794.093750	6022.613770
1792.513672	6000.753418
1790.935547	5983.651855
1789.355469	5939.645508
1787.777344	5981.124512
1786.197266	5891.247559
1784.617188	6027.642090
1783.035156	5933.047363
1781.455078	5998.212402
1779.873047	6014.336914
1778.292969	6084.199219
1776.710938	6037.082520
1775.128906	6035.807129
1773.544922	6119.836914
1771.962891	6102.750488
1770.378906	6096.723633
1768.794922	6212.260742
1767.212891	5931.574219
1765.626953	5952.413574
1764.042969	6000.064941
1762.458984	6148.648926
1760.873047	6107.923340
1759.287109	6221.732910
1757.701172	6086.425293
1756.115234	6182.854004
1754.529297	6257.182129
1752.941406	6137.705566
1751.355469	6172.634277
1749.767578	6147.708496
1748.179688	6199.938477
1746.591797	6176.590820
1745.001953	6225.644043
1743.414063	6120.483887
1741.824219	6125.482422
1740.234375	6205.968750
1738.644531	6022.258789
1737.054688	6168.758789
1735.462891	6153.308594
1733.873047	6216.434570
1732.281250	6167.987793
1730.689453	6143.122070
1729.097656	6218.771973
1727.505859	6190.765625
1725.912109	6305.615723
1724.320313	6299.573730
1722.726563	6287.257324
1721.132813	6256.120605
1719.539063	6322.238281
1717.945313	6361.669922
1716.349609	6300.749512
1714.755859	6310.387695
1713.160156	6486.131348
1711.564453	6448.723145
1709.968750	6425.428223
1708.371094	6435.030273
1706.775391	6537.007324
1705.177734	6582.585449
1703.580078	6488.851563
1701.982422	6681.506836
1700.384766	6600.306152
1698.787109	6650.522949
1697.187500	6713.228027
1695.587891	6688.354492
1693.990234	6682.248047
1692.390625	6604.256348
1690.789063	6776.287109
1689.189453	6774.851074
1687.587891	6749.988770
1685.988281	6851.613281
1684.386719	6892.310547
1682.785156	6858.072754
1681.181641	7029.828613
1679.580078	6900.408203
1677.976563	7101.717285
1676.373047	7078.378906
1674.769531	6992.684570
1673.166016	7069.141113
1671.562500	7073.875000
1669.957031	7201.699219
1668.353516	7310.775391
1666.748047	7331.028320
1665.142578	7413.558105
1663.537109	7348.155273
1661.929688	7645.439941
1660.324219	7726.292969
1658.716797	7679.533691
1657.109375	7814.786133
1655.501953	7968.642578
1653.894531	8077.342773
1652.285156	8207.759766
1650.677734	8330.349609
1649.068359	8342.564453
1647.458984	8416.913086
1645.849609	8489.676758
1644.240234	8727.011719
1642.628906	8808.992188
1641.019531	8849.029297
1639.408203	8892.151367
1637.796875	8974.042969
1636.185547	9119.499023
1634.572266	9140.822266
1632.960938	9501.704102
1631.347656	9623.699219
1629.734375	9609.252930
1628.121094	9889.225586
1626.507813	10125.701172
1624.894531	10208.735352
1623.279297	10376.903320
1621.664063	10377.791016
1620.048828	10366.293945
1618.433594	10515.748047
1616.818359	10490.299805
1615.203125	10423.095703
1613.585938	10608.011719
1611.968750	10571.733398
1610.351563	10648.323242
1608.734375	10936.625000
1607.117188	10931.204102
1605.498047	11159.069336
1603.878906	11306.516602
1602.261719	11310.283203
1600.640625	11482.336914
1599.021484	11459.820313
1597.402344	11570.036133
1595.781250	11467.275391
1594.162109	11648.401367
1592.541016	11539.497070
1590.919922	11612.590820
1589.296875	11690.277344
1587.675781	11640.000977
1586.052734	11813.187500
1584.429688	11946.242188
1582.806641	12125.449219
1581.183594	12187.539063
1579.560547	12217.267578
1577.935547	12505.592773
1576.312500	12595.260742
1574.687500	12606.416016
1573.062500	12602.182617
1571.435547	12593.335938
1569.810547	12764.402344
1568.183594	12618.697266
1566.558594	12439.239258
1564.931641	12370.499023
1563.304688	12229.578125
1561.675781	12248.465820
1560.048828	12112.236328
1558.419922	12098.895508
1556.791016	12059.463867
1555.162109	12119.805664
1553.533203	12272.184570
1551.904297	12148.363281
1550.273438	12188.706055
1548.642578	12279.632813
1547.011719	12367.453125
1545.380859	12340.278320
1543.750000	12178.259766
1542.119141	12054.612305
1540.486328	11909.571289
1538.853516	11968.275391
1537.220703	11864.653320
1535.587891	11978.448242
1533.955078	12110.558594
1532.320313	11840.185547
1530.685547	12278.228516
1529.052734	12205.236328
1527.416016	12014.529297
1525.781250	11885.056641
1524.146484	11871.804688
1522.509766	11633.916016
1520.873047	11548.913086
1519.236328	11320.360352
1517.599609	11233.931641
1515.962891	11239.150391
1514.324219	11114.612305
1512.687500	11064.909180
1511.048828	11061.003906
1509.410156	10854.202148
1507.771484	10716.122070
1506.130859	10530.830078
1504.492188	10275.487305
1502.851563	10247.363281
1501.210938	9932.757813
1499.570313	9843.775391
1497.927734	9878.212891
1496.287109	9755.774414
1494.644531	9587.709961
1493.001953	9617.611328
1491.359375	9381.161133
1489.716797	9363.921875
1488.074219	9024.180664
1486.429688	9107.407227
1484.785156	9026.370117
1483.140625	8972.732422
1481.496094	8894.798828
1479.851563	8917.192383
1478.207031	8729.912109
1476.560547	8898.152344
1474.914063	8870.414063
1473.267578	8859.387695
1471.621094	8877.207031
1469.972656	8989.113281
1468.326172	8858.197266
1466.677734	8827.458984
1465.029297	8730.000000
1463.380859	8861.550781
1461.732422	8905.114258
1460.082031	8919.860352
1458.431641	9016.428711
1456.783203	9137.196289
1455.132813	8994.349609
1453.480469	9069.635742
1451.830078	8846.620117
1450.177734	8723.605469
1448.527344	8738.363281
1446.875000	8683.511719
1445.220703	8507.665039
1443.568359	8496.746094
1441.916016	8416.275391
1440.261719	8367.585938
1438.607422	8324.961914
1436.953125	8215.867188
1435.298828	8230.703125
1433.642578	8142.821289
1431.988281	8228.640625
1430.332031	8048.698730
1428.675781	8149.594238
1427.019531	8203.662109
1425.361328	8011.770020
1423.705078	7913.486328
1422.046875	7863.505371
1420.388672	7899.491699
1418.730469	8050.031250
1417.072266	8006.080078
1415.412109	7953.105957
1413.753906	8071.896484
1412.093750	7904.459473
1410.433594	7857.563477
1408.773438	7958.229004
1407.111328	8036.271484
1405.451172	8064.618652
1403.789063	8222.343750
1402.126953	8274.704102
1400.464844	8445.848633
1398.802734	8505.653320
1397.138672	8535.367188
1395.474609	8404.255859
1393.812500	8417.448242
1392.146484	8390.073242
1390.482422	8319.154297
1388.818359	8218.233398
1387.152344	8136.872070
1385.486328	8123.087891
1383.820313	8079.296875
1382.154297	8125.541016
1380.488281	8240.762695
1378.820313	8312.443359
1377.154297	8234.162109
1375.486328	8425.729492
1373.818359	8263.531250
1372.148438	8455.006836
1370.480469	8372.265625
1368.810547	8397.391602
1367.140625	8409.030273
1365.470703	8248.506836
1363.800781	8435.282227
1362.130859	8325.697266
1360.458984	8346.313477
1358.787109	8380.381836
1357.115234	8468.267578
1355.443359	8454.450195
1353.771484	8398.787109
1352.097656	8512.012695
1350.423828	8753.676758
1348.751953	8899.635742
1347.076172	8988.780273
1345.402344	9385.458008
1343.728516	9556.555664
1342.052734	9829.061523
1340.376953	10092.495117
1338.701172	10136.522461
1337.025391	10523.559570
1335.347656	10567.470703
1333.671875	10668.011719
1331.994141	10567.295898
1330.316406	10639.477539
1328.638672	10564.137695
1326.960938	10715.228516
1325.281250	10605.651367
1323.601563	10805.795898
1321.921875	10745.365234
1320.242188	10838.241211
1318.562500	10852.219727
1316.880859	10653.478516
1315.201172	10523.233398
1313.519531	10153.663086
1311.837891	10173.722656
1310.154297	9782.096680
1308.472656	9545.172852
1306.789063	9461.363281
1305.105469	9209.760742
1303.421875	9071.118164
1301.738281	8917.691406
1300.054688	8829.637695
1298.369141	8582.844727
1296.683594	8517.155273
1294.998047	8415.895508
1293.312500	8360.650391
1291.626953	8363.250000
1289.939453	8235.409180
1288.253906	8251.370117
1286.566406	8034.712891
1284.878906	7892.213867
1283.189453	8031.156738
1281.501953	7953.867188
1279.812500	7903.256348
1278.123047	7882.266602
1276.433594	7899.755371
1274.744141	7949.780273
1273.052734	8017.530273
1271.363281	8034.975098
1269.671875	7996.235352
1267.980469	7991.505859
1266.289063	7912.894043
1264.595703	7819.543457
1262.904297	7868.025879
1261.210938	7677.263672
1259.517578	7706.562500
1257.824219	7458.354492
1256.128906	7418.329102
1254.435547	7429.958984
1252.740234	7285.228516
1251.044922	7229.044434
1249.349609	7233.334473
1247.652344	7100.534668
1245.957031	7109.270996
1244.259766	7025.178223
1242.562500	7082.537598
1240.865234	7048.560059
1239.167969	7198.649414
1237.468750	7201.462402
1235.769531	7102.721680
1234.072266	7108.496094
1232.371094	6995.107422
1230.671875	7049.437500
1228.972656	6974.342773
1227.271484	7105.098145
1225.570313	6913.909668
1223.869141	6875.629883
1222.167969	6863.811035
1220.464844	6969.501953
1218.763672	6819.628906
1217.060547	6796.083008
1215.357422	6813.646484
1213.654297	6795.980957
1211.949219	6762.184082
1210.246094	6757.738770
1208.541016	6672.636230
1206.835938	6759.114746
1205.130859	6676.979980
1203.423828	6732.641602
1201.718750	6754.577637
1200.011719	6615.367188
1198.304688	6671.002930
1196.597656	6628.510254
1194.888672	6533.336426
1193.181641	6610.904297
1191.472656	6467.488770
1189.763672	6430.928711
1188.054688	6678.124512
1186.343750	6517.241211
1184.634766	6413.444824
1182.923828	6600.550781
1181.212891	6508.470703
1179.501953	6615.118164
1177.791016	6688.123535
1176.078125	6745.032227
1174.365234	6765.416016
1172.652344	6885.044434
1170.939453	6898.089355
1169.226563	6731.674805
1167.511719	6757.875000
1165.798828	6766.562988
1164.083984	6641.111816
1162.369141	6579.853027
1160.652344	6668.726074
1158.937500	6522.981445
1157.220703	6541.905762
1155.503906	6426.837402
1153.787109	6518.574219
1152.070313	6444.320313
1150.351563	6301.697754
1148.632813	6435.594727
1146.916016	6377.409668
1145.195313	6359.972656
1143.476563	6333.818848
1141.757813	6147.767090
1140.037109	6130.392090
1138.316406	5912.501465
1136.595703	5918.429688
1134.875000	5943.235840
1133.152344	5793.781250
1131.429688	5789.568359
1129.708984	5839.059082
1127.984375	5711.493652
1126.261719	5769.683105
1124.539063	5706.008789
1122.814453	5674.265137
1121.089844	5542.500977
1119.365234	5612.269043
1117.640625	5496.517578
1115.914063	5609.727051
1114.187500	5515.754395
1112.462891	5411.687012
1110.734375	5271.470703
1109.007813	5367.256348
1107.281250	5386.299316
1105.552734	5366.269043
1103.824219	5207.383301
1102.095703	5210.540039
1100.367188	5203.574219
1098.636719	5167.700195
1096.908203	5209.882324
1095.177734	5168.243164
1093.447266	5100.620605
1091.714844	5265.543945
1089.984375	5160.388672
1088.251953	5050.949707
1086.519531	5054.130859
1084.787109	5149.654297
1083.054688	5276.870117
1081.320313	5220.864746
1079.585938	5127.394531
1077.851563	5160.825195
1076.117188	5181.268555
1074.382813	5133.979004
1072.648438	5178.907715
1070.912109	5098.513672
1069.175781	5140.549316
1067.439453	5112.024902
1065.701172	5082.073730
1063.964844	5088.108887
1062.226563	4908.559570
1060.488281	4852.784668
1058.750000	4923.574707
1057.011719	4869.258301
1055.271484	4921.326660
1053.531250	4795.185547
1051.791016	4725.131348
1050.050781	4792.994629
1048.310547	4912.522461
1046.568359	4785.061035
1044.826172	4819.850098
1043.083984	4772.827148
1041.341797	4758.823242
1039.599609	4706.097656
1037.855469	4818.308105
1036.113281	4673.835938
1034.369141	4758.767578
1032.623047	4794.936523
1030.878906	4770.914551
1029.132813	4718.255859
1027.386719	4711.446289
1025.640625	4763.339844
1023.894531	4782.287109
1022.148438	4835.570801
1020.400391	4777.231934
1018.652344	4671.715820
1016.904297	4846.543945
1015.156250	4869.736816
1013.406250	4882.913086
1011.658203	4883.220703
1009.908203	4804.945801
1008.158203	4822.411133
1006.408203	4799.881348
1004.656250	4780.216797
1002.904297	4853.345703
1001.152344	4810.842773
999.400391	4841.125977
997.648438	4705.923828
995.896484	4692.005371
994.142578	4732.274414
992.388672	4652.783203
990.634766	4695.891602
988.878906	4690.535645
987.125000	4829.056152
985.369141	4785.218262
983.613281	4715.770508
981.857422	4711.836426
980.099609	4732.098145
978.343750	4799.303711
976.585938	4810.999512
974.828125	4787.134277
973.070313	4622.514160
971.310547	4627.133301
969.552734	4600.482910
967.792969	4610.787598
966.033203	4658.021973
964.273438	4571.731934
962.511719	4770.881836
960.750000	4860.632324
958.990234	4841.058594
957.226563	4778.925293
955.464844	4867.191406
953.703125	4790.897461
951.939453	4782.699707
950.175781	4794.351074
948.412109	4627.419434
946.648438	4721.284180
944.882813	4540.279785
943.117188	4631.287109
941.351563	4600.479004
939.585938	4565.437500
937.820313	4534.658203
936.052734	4588.791504
934.285156	4583.483398
932.517578	4617.778809
930.750000	4591.255371
928.982422	4772.553711
927.212891	4719.152832
925.443359	4644.580566
923.673828	4626.550293
921.904297	4649.486328
920.132813	4608.869629
918.361328	4537.213867
916.591797	4496.641113
914.818359	4482.896484
913.046875	4493.140625
911.275391	4413.113770
909.501953	4454.389648
907.728516	4481.548340
905.955078	4418.492188
904.179688	4472.417969
902.406250	4437.567383
900.630859	4416.816406
898.855469	4379.177734
897.080078	4344.371582
895.302734	4350.396973
893.525391	4387.375488
891.750000	4307.573730
889.970703	4270.001953
888.193359	4318.221191
886.416016	4359.388184
884.636719	4349.938965
882.857422	4228.082031
881.078125	4221.476563
879.296875	4245.772461
877.517578	4223.719238
875.736328	4238.175781
873.955078	4195.081055
872.173828	4126.749023
870.390625	4080.893799
868.609375	4171.104492
866.826172	4074.780762
865.042969	4178.968750
863.259766	4063.065918
861.474609	4230.261719
859.689453	4122.805176
857.904297	4177.863281
856.119141	4147.481445
854.333984	4149.311035
852.546875	4153.938477
850.761719	4147.369141
848.974609	4118.419922
847.185547	4085.288330
845.398438	4169.625977
843.609375	4164.455566
841.822266	4083.816406
840.031250	4128.969727
838.242188	4076.314941
836.453125	4117.258301
834.662109	4082.781982
832.871094	4183.730957
831.080078	4058.537354
829.289063	4046.422852
827.496094	4113.828125
825.703125	4009.657959
823.910156	4209.501465
822.117188	4155.541016
820.324219	4217.281250
818.529297	4085.315674
816.734375	4120.575195
814.939453	4148.854004
813.144531	4146.486816
811.347656	4138.552246
809.550781	4151.497070
807.755859	4073.994629
805.957031	3995.137451
804.160156	3999.760986
802.361328	3926.519043
800.564453	4025.681641
798.765625	3928.841309
796.964844	4009.893311
795.166016	4028.397217
793.365234	4024.671387
791.564453	3984.847412
789.763672	4011.671631
787.962891	3946.888428
786.160156	4018.107178
784.359375	4007.450684
782.556641	3917.750488
780.751953	3927.919189
778.949219	3871.547119
777.144531	3917.752930
775.339844	3897.432129
773.535156	3926.987061
771.730469	3892.824463
769.925781	3987.438721
768.119141	3854.999023
766.312500	3938.505859
764.505859	3861.481201
762.697266	3910.365723
760.890625	3952.312500
759.082031	4073.045410
757.273438	4105.257324
755.464844	4239.715820
753.654297	4390.688965
751.845703	4609.272461
750.035156	4670.325195
748.224609	5033.702637
746.412109	5245.076660
744.601563	5613.665527
742.789063	5728.227051
740.976563	5939.285645
739.164063	6395.701660
737.349609	6897.396973
735.537109	7671.763184
733.722656	8327.253906
731.908203	8598.062500
730.091797	8454.161133
728.277344	7674.143066
726.460938	6820.151367
724.644531	5863.335938
722.828125	5147.780762
721.009766	4780.620605
719.193359	4362.744141
717.375000	4218.703613
715.556641	4140.718750
713.736328	4086.135254
711.917969	3888.672119
710.097656	3893.245361
708.277344	3878.588135
706.457031	3840.594482
704.636719	3957.743408
702.814453	3731.721191
700.992188	3833.746094
699.169922	3775.220703
697.347656	3873.071777
695.523438	3869.410400
693.699219	3950.742188
691.875000	4023.812012
690.050781	3998.193359
688.226563	3924.641846
686.400391	3948.361328
684.574219	3983.023193
682.748047	4020.405762
680.921875	3966.077148
679.095703	3988.394775
677.267578	3871.175293
675.439453	3900.342041
673.611328	3904.884277
671.781250	3947.697998
669.953125	3919.427246
668.123047	3973.146729
666.292969	3854.729736
664.460938	3834.694336
662.630859	3887.029297
660.798828	3854.710205
658.966797	3848.334473
657.134766	3881.527344
655.302734	3880.603760
653.468750	3976.501953
651.634766	3871.940186
649.800781	3975.972168
647.966797	3909.615723
646.130859	3896.423340
644.294922	3949.978271
642.458984	3932.696777
640.623047	4033.866211
638.787109	4026.099854
636.949219	3932.608887
635.111328	4045.948975
633.273438	3944.336426
631.435547	3997.788330
629.595703	3942.456787
627.757813	3853.172852
625.917969	3807.413574
624.076172	3868.996582
622.236328	3949.564697
620.394531	3873.941406
618.552734	3782.063477
616.710938	3773.018311
614.869141	3744.980957
613.025391	3761.722900
611.183594	3640.121094
609.339844	3631.117188
607.494141	3649.229004
605.650391	3630.739990
603.804688	3597.355225
601.958984	3622.234131
600.113281	3549.592285
598.267578	3556.868896
596.419922	3572.263428
594.572266	3538.931152
592.724609	3505.614258
590.876953	3588.642822
589.027344	3535.044189
587.179688	3465.246582
585.330078	3533.355957
583.480469	3400.076416
581.628906	3485.732178
579.779297	3511.914063
577.927734	3542.134521
576.076172	3562.889648
574.222656	3521.545166
572.371094	3585.477051
570.517578	3635.886963
568.664063	3630.971436
566.810547	3692.133545
564.955078	3619.798828
563.101563	3631.063965
561.246094	3620.763184
559.390625	3680.520996
557.533203	3557.076172
555.677734	3560.265137
553.820313	3563.452393
551.962891	3510.110107
550.105469	3463.520752
548.246094	3420.989258
546.386719	3395.962158
544.527344	3411.285156
542.667969	3406.436279
540.808594	3380.085693
538.947266	3402.119141
537.085938	3264.285645
535.224609	3357.514893
533.363281	3247.954102
531.500000	3251.203857
529.638672	3278.608643
527.775391	3322.100586
525.910156	3334.719482
524.046875	3524.354492
522.181641	3788.980713
520.316406	4489.122070
518.451172	4171.779785
516.585938	3719.270264
514.718750	3415.658691
512.851563	3309.047607
510.984375	3218.553467
509.117188	3207.074707
507.250000	3196.939453
505.380859	3213.566162
503.511719	3172.669922
501.642578	3298.947021
499.771484	3185.856445
497.902344	3245.239990
496.031250	3158.941406
494.160156	3120.778076
492.287109	3200.168213
490.416016	3116.612549
488.542969	3151.910645
486.669922	3175.179443
484.796875	3137.057129
482.921875	3158.983887
481.046875	3079.538086
479.171875	3034.798340
477.296875	3096.725586
475.421875	3161.288574
473.544922	3125.887695
471.667969	3038.551270
469.791016	3113.735352
467.914063	3082.365479
466.035156	3020.393555
464.156250	3095.527588
462.277344	3094.785645
460.398438	3079.411865
458.519531	3033.457764
456.638672	3107.186279
454.757813	3030.674805
452.876953	3130.946777
450.994141	3067.751953
449.113281	3074.986328
447.230469	3126.040283
445.347656	3042.976563
443.462891	3105.959229
441.580078	3003.034668
439.695313	3067.322998
437.810547	3050.671387
435.925781	3010.158447
434.039063	3115.496338
432.152344	3011.366455
430.267578	3119.303467
428.378906	3050.991699
426.492188	3027.744385
424.603516	3044.232666
422.714844	3132.200195
420.826172	3184.390381
418.937500	3069.831543
417.046875	3111.428223
415.158203	3082.908447
413.265625	3124.481689
411.375000	3109.191650
409.484375	3059.546631
407.591797	3099.773682
405.699219	3023.734863
403.806641	3104.891602
401.912109	2981.354736
400.019531	2958.199707
