#Wave		#Intensity
1585.210938	14723.622070
1584.209961	14776.073242
1583.208984	14580.732422
1582.208008	14680.073242
1581.206055	14654.566406
1580.204102	14461.867188
1579.202148	14845.605469
1578.200195	14742.748047
1577.198242	14694.801758
1576.195313	14624.432617
1575.192383	14514.205078
1574.189453	14543.600586
1573.186523	14543.080078
1572.182617	14901.328125
1571.178711	14838.458984
1570.174805	14720.827148
1569.170898	14518.586914
1568.166992	14493.175781
1567.162109	14542.440430
1566.158203	14609.102539
1565.153320	14740.419922
1564.147461	14588.127930
1563.142578	14614.949219
1562.136719	14609.436523
1561.130859	15019.049805
1560.125000	15102.923828
1559.119141	15040.162109
1558.113281	15213.428711
1557.106445	15642.445313
1556.099609	15731.084961
1555.092773	15936.373047
1554.084961	16305.399414
1553.078125	16302.023438
1552.070313	16286.243164
1551.062500	16342.406250
1550.054688	16306.780273
1549.045898	16362.915039
1548.038086	16265.321289
1547.029297	16140.503906
1546.020508	15956.263672
1545.011719	15727.501953
1544.001953	15753.970703
1542.992188	15728.419922
1541.982422	15633.551758
1540.972656	15273.842773
1539.962891	15072.680664
1538.952148	15034.917969
1537.942383	14752.247070
1536.931641	14771.454102
1535.919922	14803.016602
1534.909180	14824.675781
1533.897461	14455.762695
1532.886719	14754.281250
1531.874023	14422.597656
1530.862305	14404.789063
1529.850586	14629.035156
1528.837891	14188.929688
1527.825195	14319.309570
1526.812500	14363.243164
1525.799805	14135.697266
1524.786133	14224.060547
1523.772461	14137.244141
1522.758789	14023.333984
1521.745117	14035.224609
1520.731445	14167.908203
1519.716797	14214.269531
1518.702148	14164.504883
1517.687500	13984.182617
1516.672852	14274.411133
1515.657227	14177.872070
1514.642578	14364.525391
1513.626953	14221.234375
1512.610352	14299.507813
1511.594727	14153.827148
1510.579102	14268.983398
1509.562500	14140.585938
1508.545898	13955.679688
1507.529297	14230.615234
1506.511719	14205.544922
1505.494141	14256.669922
1504.477539	14241.431641
1503.458984	14412.900391
1502.441406	14380.441406
1501.423828	14674.587891
1500.405273	14362.208008
1499.386719	14712.690430
1498.368164	14498.593750
1497.348633	14498.042969
1496.330078	14622.597656
1495.310547	14639.187500
1494.291016	14913.233398
1493.271484	14687.054688
1492.250977	14870.288086
1491.231445	14511.883789
1490.210938	14778.375977
1489.190430	14638.141602
1488.168945	14684.087891
1487.148438	14754.498047
1486.126953	14567.842773
1485.105469	14843.833008
1484.083984	14662.128906
1483.061523	14734.928711
1482.040039	14739.211914
1481.017578	15019.826172
1479.995117	15080.280273
1478.971680	14972.043945
1477.949219	15188.891602
1476.925781	15415.421875
1475.902344	15461.083008
1474.878906	15736.308594
1473.855469	15784.325195
1472.831055	16081.340820
1471.806641	16182.961914
1470.782227	16435.843750
1469.757813	16795.972656
1468.733398	17058.378906
1467.708008	17545.046875
1466.682617	17931.541016
1465.657227	18420.263672
1464.631836	19040.396484
1463.605469	19674.894531
1462.579102	20026.513672
1461.552734	20117.353516
1460.526367	20831.593750
1459.500000	20827.269531
1458.472656	20650.113281
1457.445313	20794.287109
1456.417969	20191.382813
1455.390625	19907.421875
1454.362305	19643.035156
1453.334961	18770.816406
1452.306641	18368.191406
1451.277344	17870.933594
1450.249023	17582.882813
1449.219727	17122.439453
1448.191406	17031.429688
1447.162109	16772.875000
1446.131836	16439.150391
1445.102539	16081.287109
1444.072266	16335.232422
1443.041992	15880.468750
1442.011719	15743.727539
1440.981445	15674.961914
1439.950195	15727.484375
1438.918945	15636.926758
1437.887695	15306.409180
1436.856445	15303.227539
1435.825195	15215.235352
1434.792969	15296.866211
1433.760742	15206.487305
1432.728516	14975.687500
1431.696289	14781.300781
1430.663086	14836.323242
1429.629883	14796.935547
1428.596680	14510.756836
1427.563477	14556.122070
1426.530273	14661.934570
1425.496094	14494.449219
1424.461914	14252.085938
1423.427734	14038.828125
1422.393555	14190.573242
1421.358398	14214.197266
1420.323242	14150.848633
1419.288086	14314.547852
1418.252930	14282.592773
1417.217773	14274.791992
1416.181641	14168.033203
1415.145508	14218.172852
1414.109375	14403.397461
1413.073242	14540.301758
1412.036133	14288.875977
1411.000000	14992.359375
1409.962891	15059.144531
1408.924805	15176.513672
1407.887695	15462.505859
1406.849609	15907.378906
1405.812500	16241.270508
1404.773438	16661.712891
1403.735352	17038.642578
1402.697266	17612.796875
1401.658203	17799.248047
1400.619141	18033.742188
1399.580078	18422.095703
1398.540039	18312.429688
1397.500977	18669.300781
1396.460938	18153.335938
1395.420898	18120.705078
1394.380859	17934.291016
1393.339844	17788.796875
1392.298828	17583.310547
1391.257813	17144.953125
1390.216797	17395.892578
1389.175781	17317.843750
1388.133789	17439.033203
1387.091797	17231.427734
1386.049805	17604.488281
1385.007813	18061.341797
1383.964844	18556.371094
1382.922852	19072.771484
1381.879883	19701.619141
1380.835938	20052.197266
1379.792969	20457.740234
1378.749023	20925.394531
1377.706055	21606.015625
1376.661133	21572.767578
1375.617188	22094.955078
1374.573242	21884.490234
1373.528320	21867.951172
1372.483398	21683.935547
1371.438477	21389.960938
1370.392578	21263.519531
1369.347656	20740.208984
1368.301758	20563.750000
1367.255859	20055.142578
1366.208984	19924.300781
1365.163086	19318.083984
1364.116211	19175.503906
1363.069336	18679.548828
1362.022461	18477.470703
1360.974609	18184.765625
1359.927734	18271.650391
1358.879883	18189.083984
1357.832031	18170.962891
1356.783203	17907.183594
1355.735352	17836.666016
1354.686523	17990.279297
1353.637695	18236.787109
1352.588867	18502.255859
1351.539063	18724.724609
1350.490234	19349.669922
1349.440430	19781.445313
1348.390625	20179.703125
1347.339844	20922.978516
1346.290039	21632.617188
1345.239258	22403.828125
1344.188477	23167.576172
1343.137695	23609.892578
1342.085938	24686.972656
1341.034180	24917.175781
1339.982422	25325.562500
1338.930664	25633.958984
1337.878906	26341.408203
1336.826172	26435.654297
1335.773438	26503.734375
1334.720703	26236.964844
1333.667969	26233.830078
1332.614258	25917.378906
1331.561523	25470.539063
1330.507813	25237.417969
1329.453125	24487.275391
1328.399414	24119.273438
1327.344727	23706.375000
1326.290039	23120.593750
1325.235352	22682.001953
1324.180664	22523.208984
1323.125000	21864.597656
1322.070313	21644.455078
1321.014648	21628.064453
1319.958008	21453.046875
1318.902344	21095.832031
1317.845703	20928.095703
1316.789063	20561.675781
1315.732422	20252.181641
1314.675781	19649.541016
1313.618164	19172.476563
1312.560547	19267.734375
1311.502930	18783.859375
1310.445313	18522.322266
1309.386719	18197.101563
1308.329102	17992.484375
1307.270508	17518.726563
1306.210938	17491.423828
1305.152344	17039.212891
1304.092773	16556.509766
1303.033203	16300.537109
1301.973633	16433.931641
1300.914063	16274.795898
1299.853516	16068.561523
1298.792969	15871.843750
1297.732422	15993.425781
1296.671875	15622.411133
1295.611328	15317.523438
1294.549805	15684.133789
1293.488281	15532.447266
1292.426758	15562.133789
1291.364258	15457.618164
1290.302734	15515.550781
1289.240234	15406.380859
1288.177734	15421.948242
1287.114258	15632.741211
1286.051758	15572.998047
1284.988281	15736.643555
1283.924805	15714.512695
1282.861328	16134.229492
1281.796875	16274.152344
1280.732422	16536.173828
1279.667969	16737.015625
1278.603516	17325.230469
1277.539063	17591.554688
1276.473633	18057.281250
1275.408203	18339.761719
1274.342773	18629.162109
1273.277344	18716.703125
1272.210938	18557.955078
1271.145508	18854.154297
1270.079102	18636.835938
1269.011719	18269.605469
1267.945313	17726.787109
1266.877930	17680.861328
1265.810547	17463.968750
1264.743164	16682.798828
1263.674805	16295.293945
1262.607422	15987.539063
1261.539063	15815.649414
1260.470703	15264.785156
1259.401367	15186.690430
1258.333008	15047.819336
1257.263672	14831.841797
1256.194336	14732.845703
1255.125000	14659.600586
1254.054688	14616.763672
1252.985352	14300.594727
1251.915039	14131.714844
1250.843750	14236.139648
1249.773438	14074.348633
1248.702148	14029.340820
1247.630859	14068.370117
1246.559570	14077.047852
1245.488281	13971.411133
1244.416016	13945.118164
1243.343750	13764.933594
1242.271484	13752.681641
1241.199219	13808.029297
1240.125977	13779.458984
1239.053711	13960.587891
1237.980469	13948.299805
1236.906250	14154.931641
1235.833008	13965.648438
1234.758789	13916.119141
1233.684570	13987.632813
1232.610352	14075.404297
1231.536133	13844.418945
1230.460938	14092.668945
1229.385742	14012.928711
1228.310547	13956.469727
1227.235352	14269.617188
1226.159180	14157.351563
1225.083008	14247.271484
1224.006836	13991.034180
1222.930664	13997.340820
1221.853516	14210.296875
1220.777344	13949.584961
1219.700195	14264.580078
1218.622070	14147.833984
1217.544922	14300.252930
1216.466797	14132.518555
1215.388672	14020.509766
1214.310547	14103.299805
1213.232422	14211.551758
1212.153320	14180.707031
1211.074219	14226.333984
1209.995117	14348.385742
1208.916016	14449.540039
1207.835938	14476.553711
1206.755859	14533.649414
1205.675781	14451.848633
1204.595703	14562.145508
1203.514648	14535.896484
1202.434570	14539.725586
1201.353516	14467.239258
1200.271484	14568.185547
1199.190430	14525.771484
1198.108398	14273.068359
1197.026367	14288.497070
1195.944336	14193.035156
1194.862305	13947.491211
1193.779297	13928.339844
1192.696289	13966.911133
1191.613281	13696.180664
1190.530273	13693.245117
1189.446289	13690.310547
1188.362305	13786.559570
1187.278320	13361.585938
1186.194336	13178.882813
1185.109375	13199.107422
1184.024414	13057.998047
1182.939453	12910.036133
1181.854492	12858.889648
1180.768555	12681.090820
1179.683594	12834.948242
1178.597656	12882.839844
1177.510742	12643.002930
1176.424805	12863.500000
1175.337891	12623.767578
1174.250977	12910.876953
1173.164063	12698.832031
1172.077148	12636.323242
1170.989258	12764.632813
1169.901367	12633.188477
1168.813477	12616.685547
1167.724609	12889.636719
1166.636719	12703.126953
1165.547852	12682.024414
1164.458984	12851.474609
1163.369141	12688.041992
1162.280273	12731.205078
1161.190430	12386.622070
1160.100586	12572.041992
1159.010742	12690.875977
1157.919922	12656.043945
1156.829102	12848.159180
1155.738281	12854.557617
1154.647461	12854.078125
1153.555664	12995.625977
1152.464844	12834.793945
1151.373047	13166.335938
1150.280273	13037.584961
1149.188477	13467.357422
1148.095703	13315.710938
1147.002930	13646.858398
1145.910156	13376.295898
1144.817383	13476.315430
1143.723633	13544.282227
1142.629883	13262.483398
1141.536133	13369.315430
1140.441406	13373.281250
1139.347656	13256.173828
1138.252930	13369.786133
1137.158203	13220.759766
1136.062500	13122.019531
1134.967773	13160.265625
1133.872070	13164.264648
1132.776367	13001.718750
1131.679688	12953.287109
1130.583984	13039.420898
1129.487305	13002.399414
1128.390625	12919.804688
1127.292969	12917.006836
1126.196289	13030.410156
1125.098633	13048.089844
1124.000977	12853.957031
1122.903320	12924.034180
1121.804688	12793.750977
1120.706055	12829.669922
1119.607422	12865.571289
1118.508789	12667.132813
1117.409180	12964.618164
1116.310547	12918.600586
1115.210938	12899.882813
1114.110352	12735.700195
1113.010742	12826.109375
1111.910156	12771.068359
1110.809570	12759.208984
1109.708984	12867.719727
1108.607422	12780.914063
1107.506836	12775.868164
1106.405273	12718.623047
1105.303711	12722.666016
1104.201172	12611.008789
1103.098633	12522.080078
1101.996094	12519.357422
1100.893555	12208.309570
1099.791016	12425.514648
1098.687500	12474.932617
1097.583984	12304.562500
1096.480469	12442.322266
1095.376953	12401.115234
1094.272461	12196.906250
1093.167969	12318.750977
1092.063477	12264.015625
1090.958008	12270.394531
1089.853516	12423.810547
1088.748047	12262.786133
1087.642578	12171.927734
1086.536133	12214.488281
1085.430664	12455.925781
1084.324219	12215.940430
1083.217773	12125.166992
1082.110352	12291.925781
1081.003906	12282.468750
1079.896484	12187.221680
1078.789063	12209.390625
1077.680664	12299.251953
1076.573242	12262.722656
1075.464844	12284.857422
1074.356445	12257.366211
1073.247070	12362.916992
1072.138672	12276.807617
1071.029297	12238.063477
1069.919922	12296.227539
1068.809570	12469.257813
1067.700195	12153.459961
1066.589844	12344.458008
1065.479492	12301.233398
1064.368164	12350.310547
1063.257813	12280.097656
1062.146484	12250.412109
1061.035156	12204.992188
1059.922852	12373.233398
1058.811523	12404.249023
1057.699219	12435.250000
1056.586914	12248.240234
1055.473633	12441.036133
1054.361328	12299.032227
1053.248047	12179.548828
1052.134766	12361.002930
1051.021484	12349.312500
1049.907227	12207.449219
1048.792969	12220.478516
1047.678711	12235.745117
1046.564453	12217.359375
1045.449219	12299.890625
1044.333984	12355.481445
1043.218750	12404.323242
1042.103516	12450.900391
1040.987305	12340.622070
1039.871094	12539.510742
1038.754883	12655.449219
1037.638672	12392.942383
1036.521484	12289.484375
1035.404297	12671.723633
1034.287109	12507.833984
1033.169922	12757.869141
1032.051758	12589.557617
1030.933594	12756.728516
1029.815430	12749.450195
1028.697266	12746.644531
1027.578125	12857.801758
1026.458984	12828.162109
1025.339844	13073.266602
1024.220703	12766.683594
1023.100586	12848.710938
1021.980469	12995.431641
1020.860352	13106.381836
1019.740234	13063.332031
1018.619141	13064.913086
1017.498047	13050.881836
1016.376953	13034.625000
1015.255859	12973.791016
1014.133789	13015.502930
1013.011719	13228.764648
1011.889648	13011.986328
1010.767578	13060.339844
1009.644531	12894.905273
1008.521484	13123.584961
1007.398438	12938.176758
1006.274414	13102.210938
1005.151367	12839.020508
1004.027344	12938.499023
1002.902344	12997.905273
1001.778320	12670.433594
1000.653320	12749.875000
999.528320	12727.054688
998.403320	12833.107422
997.278320	12657.005859
996.152344	12609.789063
995.026367	12809.047852
993.900391	12666.363281
992.773438	12756.771484
991.646484	12674.067383
990.519531	12706.754883
989.392578	12579.739258
988.265625	12661.211914
987.137695	12709.394531
986.009766	12735.391602
984.881836	12792.397461
983.752930	12813.930664
982.624023	12600.671875
981.495117	12792.746094
980.366211	12809.833984
979.236328	12640.983398
978.106445	12647.030273
976.976563	12810.157227
975.846680	12541.876953
974.715820	12486.016602
973.585938	12682.232422
972.454102	12732.467773
971.323242	12643.449219
970.191406	12664.944336
969.060547	12551.677734
967.927734	12509.134766
966.795898	12607.923828
965.663086	12578.629883
964.530273	12803.159180
963.397461	12592.893555
962.264648	12940.858398
961.130859	13098.987305
959.997070	13045.354492
958.863281	13126.225586
957.729492	13088.037109
956.594727	13160.045898
955.459961	13207.787109
954.325195	13022.025391
953.189453	12862.771484
952.053711	12864.308594
950.917969	12731.572266
949.782227	12658.312500
948.646484	12679.692383
947.509766	12467.893555
946.373047	12363.949219
945.235352	12585.459961
944.098633	12569.462891
942.960938	12586.437500
941.823242	12570.445313
940.685547	12699.444336
939.546875	12494.552734
938.408203	12836.499023
937.269531	12848.999023
936.129883	12580.558594
934.991211	12740.125977
933.851563	12833.807617
932.711914	13039.304688
931.571289	12924.555664
930.431641	13024.706055
929.291016	13094.124023
928.149414	13049.559570
927.008789	13022.541016
925.867188	12999.914063
924.725586	12933.498047
923.583984	12934.982422
922.441406	12813.885742
921.299805	12922.625977
920.157227	12703.126953
919.013672	12584.347656
917.871094	12445.937500
916.727539	12248.553711
915.583984	12350.736328
914.439453	12295.516602
913.295898	12117.960938
912.151367	12045.339844
911.006836	12016.430664
909.861328	12111.994141
908.716797	11910.622070
907.571289	11798.822266
906.424805	11979.466797
905.279297	12022.591797
904.132813	11867.217773
902.986328	12093.514648
901.839844	12123.500977
900.692383	11946.410156
899.545898	12128.951172
898.398438	12017.294922
897.250000	12230.230469
896.102539	11889.946289
894.954102	12091.926758
893.805664	12250.282227
892.656250	11955.919922
891.507813	11961.933594
890.358398	12048.426758
889.208984	11908.708984
888.058594	11958.210938
886.908203	12090.291992
885.758789	11796.356445
884.607422	11763.282227
883.457031	11823.629883
882.305664	11923.040039
881.154297	11913.841797
880.002930	11761.373047
878.850586	11880.260742
877.698242	11703.998047
876.545898	11935.647461
875.393555	11930.789063
874.240234	11663.560547
873.086914	11775.827148
871.933594	11606.284180
870.780273	11555.995117
869.625977	11614.046875
868.471680	11643.915039
867.317383	11758.219727
866.162109	11491.445313
865.007813	11633.869141
863.852539	11700.488281
862.696289	11555.057617
861.541016	11504.863281
860.384766	11606.063477
859.228516	11713.704102
858.072266	11512.198242
856.915039	11609.003906
855.757813	11474.587891
854.600586	11374.791992
853.442383	11519.069336
852.285156	11589.873047
851.126953	11537.604492
849.968750	11649.374023
848.809570	11504.336914
847.650391	11708.816406
846.491211	11462.467773
845.332031	11692.737305
844.171875	11558.595703
843.012695	11452.530273
841.851563	11456.401367
840.691406	11671.379883
839.530273	11530.899414
838.369141	11321.579102
837.208008	11400.817383
836.046875	11430.516602
834.884766	11610.824219
833.722656	11492.024414
832.560547	11439.951172
831.397461	11476.062500
830.234375	11434.763672
829.071289	11378.437500
827.908203	11607.928711
826.744141	11349.643555
825.580078	11542.521484
824.416016	11348.787109
823.251953	11509.373047
822.086914	11536.809570
820.921875	11594.275391
819.756836	11503.680664
818.590820	11503.212891
817.425781	11537.055664
816.259766	11358.630859
815.092773	11643.273438
813.926758	11548.479492
812.759766	11670.118164
811.592773	11521.809570
810.424805	11452.803711
809.257813	11576.519531
808.089844	11492.545898
806.920898	11415.030273
805.752930	11399.596680
804.583984	11474.009766
803.415039	11392.270508
802.246094	11404.644531
801.076172	11367.846680
799.906250	11382.355469
798.736328	11307.118164
797.566406	11304.543945
796.395508	11442.922852
795.224609	11512.913086
794.053711	11491.078125
792.881836	11680.539063
791.710938	11889.116211
790.538086	11713.614258
789.366211	11900.758789
788.194336	11861.796875
787.021484	11965.681641
785.848633	11962.953125
784.674805	11757.797852
783.500977	11640.079102
782.327148	11814.200195
781.153320	11553.852539
779.979492	11440.515625
778.804688	11476.215820
777.629883	11409.758789
776.454102	11417.791992
775.279297	11585.337891
774.103516	11302.003906
772.927734	11437.609375
771.750977	11479.631836
770.575195	11383.509766
769.398438	11387.283203
768.220703	11478.137695
767.043945	11677.249023
765.866211	11557.812500
764.688477	11637.950195
763.510742	11703.196289
762.332031	11785.383789
761.153320	11839.958008
759.974609	11754.545898
758.794922	12095.318359
757.616211	12183.695313
756.436523	11886.345703
755.255859	12307.360352
754.076172	12465.525391
752.895508	12869.271484
751.714844	13122.508789
750.533203	13331.177734
749.352539	13816.978516
748.170898	14414.690430
746.988281	15388.648438
745.806641	16288.140625
744.624023	17929.341797
743.441406	19861.498047
742.258789	22832.529297
741.075195	26317.736328
739.891602	30130.873047
738.708008	34400.539063
737.523438	38298.750000
736.339844	40569.761719
735.155273	41890.031250
733.969727	41834.007813
732.785156	40537.636719
731.599609	37721.281250
730.414063	34533.011719
729.227539	30321.703125
728.041992	26717.187500
726.855469	23386.132813
725.667969	20555.863281
724.481445	18428.212891
723.293945	16590.007813
722.106445	15436.805664
720.918945	14467.235352
719.730469	13744.294922
718.541992	13171.044922
717.353516	12919.843750
716.164063	12450.077148
714.975586	12310.572266
713.786133	11862.176758
712.595703	11890.969727
711.406250	11501.695313
710.215820	11557.860352
709.025391	11609.797852
707.833984	11390.899414
706.642578	11438.652344
705.451172	11129.662109
704.259766	11332.694336
703.068359	11244.094727
701.875977	11218.442383
700.683594	11167.643555
699.490234	11259.391602
698.297852	11145.742188
697.104492	11287.730469
695.910156	11253.714844
694.716797	11540.098633
693.522461	11537.442383
692.328125	11495.018555
691.132813	12011.328125
689.938477	11874.668945
688.743164	12083.185547
687.547852	12040.671875
686.351563	12098.527344
685.155273	12166.805664
683.958984	11865.178711
682.762695	11735.004883
681.565430	11755.276367
680.368164	11504.067383
679.170898	11198.692383
677.973633	11210.722656
676.775391	11279.088867
675.577148	11364.114258
674.378906	11321.863281
673.179688	11404.751953
671.980469	11191.550781
670.781250	10982.615234
669.581055	11217.647461
668.381836	11302.563477
667.181641	11293.708008
665.980469	11353.576172
664.780273	11384.268555
663.579102	11389.967773
662.377930	11333.232422
661.175781	11700.953125
659.973633	11746.093750
658.771484	11911.828125
657.569336	12071.248047
656.367188	12340.760742
655.164063	12283.879883
653.960938	12810.846680
652.756836	12768.421875
651.552734	12958.606445
650.348633	13055.271484
649.144531	12840.531250
647.939453	13121.875977
646.735352	13338.771484
645.529297	13362.655273
644.324219	13322.239258
643.118164	13325.380859
641.912109	13517.150391
640.706055	13472.579102
639.499023	13299.568359
638.292969	13524.351563
637.084961	13438.387695
635.877930	13232.375000
634.669922	13438.384766
633.461914	13375.261719
632.253906	13399.066406
631.044922	13247.031250
629.836914	13183.994141
628.626953	13261.581055
627.417969	12917.438477
626.208008	12951.650391
624.998047	12882.537109
623.788086	12406.513672
622.577148	12564.729492
621.366211	12314.054688
620.155273	11923.125977
618.944336	12093.723633
617.732422	11748.417969
616.520508	11702.378906
615.308594	11466.625977
614.095703	11266.033203
612.882813	11566.449219
611.669922	11236.085938
610.457031	10905.875977
609.243164	11033.127930
608.029297	11005.859375
606.815430	10824.177734
605.600586	10947.241211
604.385742	10983.809570
603.170898	10707.608398
601.955078	10762.726563
600.740234	10996.745117
599.524414	10866.716797
598.307617	10839.531250
597.091797	10754.812500
595.875000	10735.882813
594.658203	10710.798828
593.440430	10798.682617
592.222656	10763.328125
591.004883	10699.249023
589.787109	10805.543945
588.568359	10837.920898
587.349609	10788.227539
586.130859	10804.184570
584.912109	10816.033203
583.692383	10911.924805
582.472656	11300.845703
581.251953	11048.247070
580.032227	11164.500977
578.811523	11249.978516
577.589844	11400.939453
576.369141	11449.472656
575.147461	11465.238281
573.925781	11536.241211
572.703125	11594.936523
571.481445	11567.705078
570.258789	11771.540039
569.035156	11725.880859
567.812500	11774.255859
566.588867	11912.512695
565.365234	11946.520508
564.140625	11870.224609
562.916992	11881.763672
561.692383	11925.959961
560.466797	11900.743164
559.242188	11795.958984
558.016602	11846.261719
556.791016	11678.311523
555.564453	11669.485352
554.337891	11495.537109
553.111328	11566.241211
551.884766	11349.605469
550.657227	11236.965820
549.429688	11236.394531
548.202148	11362.068359
546.974609	11164.000000
545.746094	11167.515625
544.517578	11392.820313
543.288086	11341.352539
542.058594	11377.363281
540.829102	11437.756836
539.599609	11262.305664
538.370117	11290.177734
537.139648	11253.013672
535.909180	11250.401367
534.677734	11314.813477
533.446289	11109.131836
532.214844	11090.312500
530.983398	11185.159180
529.750977	11253.582031
528.519531	11068.389648
527.286133	10915.733398
526.053711	10941.586914
524.820313	11097.172852
523.586914	11082.435547
522.353516	10988.678711
521.119141	11010.437500
519.884766	10997.753906
518.650391	10993.175781
517.415039	11120.186523
516.179688	11008.310547
514.944336	10809.475586
513.708984	10948.577148
