#Wave		#Intensity
1585.210938	21457.275391
1584.209961	21472.261719
1583.208984	21552.714844
1582.208008	21638.126953
1581.206055	21611.179688
1580.204102	21736.472656
1579.202148	21395.136719
1578.200195	21767.380859
1577.198242	21510.974609
1576.195313	21399.298828
1575.192383	21644.164063
1574.189453	21495.117188
1573.186523	21650.150391
1572.182617	21334.236328
1571.178711	21469.310547
1570.174805	21200.878906
1569.170898	21062.035156
1568.166992	21229.439453
1567.162109	21030.912109
1566.158203	21096.230469
1565.153320	21049.568359
1564.147461	20938.253906
1563.142578	21132.863281
1562.136719	21543.697266
1561.130859	21462.177734
1560.125000	21263.882813
1559.119141	21893.089844
1558.113281	22027.673828
1557.106445	22306.255859
1556.099609	22900.089844
1555.092773	22910.244141
1554.084961	23401.935547
1553.078125	23580.732422
1552.070313	23717.275391
1551.062500	24210.970703
1550.054688	24173.716797
1549.045898	24186.070313
1548.038086	24600.029297
1547.029297	24798.177734
1546.020508	24505.589844
1545.011719	24993.548828
1544.001953	25094.886719
1542.992188	25003.011719
1541.982422	25626.742188
1540.972656	25534.794922
1539.962891	25779.482422
1538.952148	25858.277344
1537.942383	25934.564453
1536.931641	25973.716797
1535.919922	26032.634766
1534.909180	25740.443359
1533.897461	25942.755859
1532.886719	25527.130859
1531.874023	25131.445313
1530.862305	24533.349609
1529.850586	24385.017578
1528.837891	24219.460938
1527.825195	23720.677734
1526.812500	23587.412109
1525.799805	23130.916016
1524.786133	22963.283203
1523.772461	22396.097656
1522.758789	22719.478516
1521.745117	22152.574219
1520.731445	22113.474609
1519.716797	22030.023438
1518.702148	21685.394531
1517.687500	21818.873047
1516.672852	21632.076172
1515.657227	21607.894531
1514.642578	21504.931641
1513.626953	21598.945313
1512.610352	21737.220703
1511.594727	21720.416016
1510.579102	21804.482422
1509.562500	21608.113281
1508.545898	21232.306641
1507.529297	21451.644531
1506.511719	21754.468750
1505.494141	21754.876953
1504.477539	21715.970703
1503.458984	21706.560547
1502.441406	21991.882813
1501.423828	21800.701172
1500.405273	21697.982422
1499.386719	21720.486328
1498.368164	21887.771484
1497.348633	21733.570313
1496.330078	21787.939453
1495.310547	22077.730469
1494.291016	22114.839844
1493.271484	22448.566406
1492.250977	22439.011719
1491.231445	22145.203125
1490.210938	22317.013672
1489.190430	22275.646484
1488.168945	22038.376953
1487.148438	22139.091797
1486.126953	22406.228516
1485.105469	22514.166016
1484.083984	22690.574219
1483.061523	22583.119141
1482.040039	22923.314453
1481.017578	22879.435547
1479.995117	23172.972656
1478.971680	23368.609375
1477.949219	23896.537109
1476.925781	23815.835938
1475.902344	24402.078125
1474.878906	24660.796875
1473.855469	25041.500000
1472.831055	25590.498047
1471.806641	26024.546875
1470.782227	26792.744141
1469.757813	27001.894531
1468.733398	27496.359375
1467.708008	28346.689453
1466.682617	29642.880859
1465.657227	30121.859375
1464.631836	31880.234375
1463.605469	32741.128906
1462.579102	33640.644531
1461.552734	34800.414063
1460.526367	35862.292969
1459.500000	36894.507813
1458.472656	37278.773438
1457.445313	37738.320313
1456.417969	37572.324219
1455.390625	37394.230469
1454.362305	36518.144531
1453.334961	35785.894531
1452.306641	34521.503906
1451.277344	33780.246094
1450.249023	32861.886719
1449.219727	31873.443359
1448.191406	30586.611328
1447.162109	29924.500000
1446.131836	29158.246094
1445.102539	28368.031250
1444.072266	27580.572266
1443.041992	27269.074219
1442.011719	26618.035156
1440.981445	26183.152344
1439.950195	25927.916016
1438.918945	25767.345703
1437.887695	25158.365234
1436.856445	25075.578125
1435.825195	24706.886719
1434.792969	24679.945313
1433.760742	24028.091797
1432.728516	23994.035156
1431.696289	23601.658203
1430.663086	23538.654297
1429.629883	23219.136719
1428.596680	23233.664063
1427.563477	22648.232422
1426.530273	22645.939453
1425.496094	22404.250000
1424.461914	22406.841797
1423.427734	22245.064453
1422.393555	22097.853516
1421.358398	22122.250000
1420.323242	21892.990234
1419.288086	21847.376953
1418.252930	21516.853516
1417.217773	21700.675781
1416.181641	22022.000000
1415.145508	22043.958984
1414.109375	21981.466797
1413.073242	22157.798828
1412.036133	22666.859375
1411.000000	22565.695313
1409.962891	22934.640625
1408.924805	23493.830078
1407.887695	24011.822266
1406.849609	24744.009766
1405.812500	25220.576172
1404.773438	26091.873047
1403.735352	26808.716797
1402.697266	27780.414063
1401.658203	28655.441406
1400.619141	28950.230469
1399.580078	29216.029297
1398.540039	29421.585938
1397.500977	29848.279297
1396.460938	29269.878906
1395.420898	29167.630859
1394.380859	28995.732422
1393.339844	28489.945313
1392.298828	28476.794922
1391.257813	28069.789063
1390.216797	28044.722656
1389.175781	27786.808594
1388.133789	28409.832031
1387.091797	28711.048828
1386.049805	28820.210938
1385.007813	29694.474609
1383.964844	30685.878906
1382.922852	31341.203125
1381.879883	32559.568359
1380.835938	33612.054688
1379.792969	34211.242188
1378.749023	35471.359375
1377.706055	35851.953125
1376.661133	36002.503906
1375.617188	36746.718750
1374.573242	36353.675781
1373.528320	36396.332031
1372.483398	36149.464844
1371.438477	35673.058594
1370.392578	35187.285156
1369.347656	34594.113281
1368.301758	34120.714844
1367.255859	33432.406250
1366.208984	33112.378906
1365.163086	32324.224609
1364.116211	31875.574219
1363.069336	31298.154297
1362.022461	31129.248047
1360.974609	30690.671875
1359.927734	30510.027344
1358.879883	30689.755859
1357.832031	30397.060547
1356.783203	30736.531250
1355.735352	30391.484375
1354.686523	31004.980469
1353.637695	31367.941406
1352.588867	32221.664063
1351.539063	32982.105469
1350.490234	34099.535156
1349.440430	35214.117188
1348.390625	36418.710938
1347.339844	38134.621094
1346.290039	38626.445313
1345.239258	40495.839844
1344.188477	41705.441406
1343.137695	43028.707031
1342.085938	44272.937500
1341.034180	45671.183594
1339.982422	46405.632813
1338.930664	47722.035156
1337.878906	48213.378906
1336.826172	48654.625000
1335.773438	49048.179688
1334.720703	48909.652344
1333.667969	49511.902344
1332.614258	49340.101563
1331.561523	48019.785156
1330.507813	47454.507813
1329.453125	46908.445313
1328.399414	46073.269531
1327.344727	44773.703125
1326.290039	43953.542969
1325.235352	43479.761719
1324.180664	42205.250000
1323.125000	41805.472656
1322.070313	41202.156250
1321.014648	41051.406250
1319.958008	40427.191406
1318.902344	39883.714844
1317.845703	38914.472656
1316.789063	38494.578125
1315.732422	37379.363281
1314.675781	36238.597656
1313.618164	35592.515625
1312.560547	34622.820313
1311.502930	33629.890625
1310.445313	32982.398438
1309.386719	31805.943359
1308.329102	30922.886719
1307.270508	30073.263672
1306.210938	29143.714844
1305.152344	28932.197266
1304.092773	27795.583984
1303.033203	27225.767578
1301.973633	27087.914063
1300.914063	27020.878906
1299.853516	26670.888672
1298.792969	25998.042969
1297.732422	25575.337891
1296.671875	25610.007813
1295.611328	25345.423828
1294.549805	24845.382813
1293.488281	25042.685547
1292.426758	24717.162109
1291.364258	24749.611328
1290.302734	24527.845703
1289.240234	24830.935547
1288.177734	24661.001953
1287.114258	24665.201172
1286.051758	24528.294922
1284.988281	24753.531250
1283.924805	24872.888672
1282.861328	25116.753906
1281.796875	25487.400391
1280.732422	26010.585938
1279.667969	26059.107422
1278.603516	26520.892578
1277.539063	26905.007813
1276.473633	27469.693359
1275.408203	27940.269531
1274.342773	28408.298828
1273.277344	28815.138672
1272.210938	28769.169922
1271.145508	28805.285156
1270.079102	28717.136719
1269.011719	28544.648438
1267.945313	28095.726563
1266.877930	27874.240234
1265.810547	26856.474609
1264.743164	26567.427734
1263.674805	25742.351563
1262.607422	25013.593750
1261.539063	24598.740234
1260.470703	24163.003906
1259.401367	23736.806641
1258.333008	23441.761719
1257.263672	23067.337891
1256.194336	22856.716797
1255.125000	22851.867188
1254.054688	22503.505859
1252.985352	21977.730469
1251.915039	22134.236328
1250.843750	21966.064453
1249.773438	21935.716797
1248.702148	21613.587891
1247.630859	21693.015625
1246.559570	21613.740234
1245.488281	21518.166016
1244.416016	21452.951172
1243.343750	21534.669922
1242.271484	21227.015625
1241.199219	21171.222656
1240.125977	21262.265625
1239.053711	21565.287109
1237.980469	21521.099609
1236.906250	21369.800781
1235.833008	21341.970703
1234.758789	21295.525391
1233.684570	21637.773438
1232.610352	21365.574219
1231.536133	21635.541016
1230.460938	21691.406250
1229.385742	21591.443359
1228.310547	21368.302734
1227.235352	21366.072266
1226.159180	21549.757813
1225.083008	21510.312500
1224.006836	21515.019531
1222.930664	21656.746094
1221.853516	21443.152344
1220.777344	21677.687500
1219.700195	21264.576172
1218.622070	21443.355469
1217.544922	21777.494141
1216.466797	21819.234375
1215.388672	21995.457031
1214.310547	21833.105469
1213.232422	22122.826172
1212.153320	22301.183594
1211.074219	22314.955078
1209.995117	22669.244141
1208.916016	22768.621094
1207.835938	22863.322266
1206.755859	22946.406250
1205.675781	23045.652344
1204.595703	23019.898438
1203.514648	23021.916016
1202.434570	22676.976563
1201.353516	22857.128906
1200.271484	22988.648438
1199.190430	23002.220703
1198.108398	22881.744141
1197.026367	22387.007813
1195.944336	22486.166016
1194.862305	22231.917969
1193.779297	22053.974609
1192.696289	21483.648438
1191.613281	21389.029297
1190.530273	21132.917969
1189.446289	21096.089844
1188.362305	20911.652344
1187.278320	20316.804688
1186.194336	20291.697266
1185.109375	20326.533203
1184.024414	20158.542969
1182.939453	19933.021484
1181.854492	19474.927734
1180.768555	19618.148438
1179.683594	19491.898438
1178.597656	19377.208984
1177.510742	19002.480469
1176.424805	18991.496094
1175.337891	18932.201172
1174.250977	19068.443359
1173.164063	18864.273438
1172.077148	19179.804688
1170.989258	19035.462891
1169.901367	18884.285156
1168.813477	18907.796875
1167.724609	18821.029297
1166.636719	19104.070313
1165.547852	19212.474609
1164.458984	18919.078125
1163.369141	19328.148438
1162.280273	19046.324219
1161.190430	19202.820313
1160.100586	19054.177734
1159.010742	19153.269531
1157.919922	19428.861328
1156.829102	19775.390625
1155.738281	19519.035156
1154.647461	19469.001953
1153.555664	19799.259766
1152.464844	19634.669922
1151.373047	19767.822266
1150.280273	19717.773438
1149.188477	19992.753906
1148.095703	20015.900391
1147.002930	19986.414063
1145.910156	20405.255859
1144.817383	20201.894531
1143.723633	20016.912109
1142.629883	19987.445313
1141.536133	20172.810547
1140.441406	20102.191406
1139.347656	20129.830078
1138.252930	19954.187500
1137.158203	19979.558594
1136.062500	19767.496094
1134.967773	20041.673828
1133.872070	19514.785156
1132.776367	19686.230469
1131.679688	19463.003906
1130.583984	19632.103516
1129.487305	19388.462891
1128.390625	19505.076172
1127.292969	19564.662109
1126.196289	19583.208984
1125.098633	19585.802734
1124.000977	19763.755859
1122.903320	19308.634766
1121.804688	19541.203125
1120.706055	19443.652344
1119.607422	19396.203125
1118.508789	19482.996094
1117.409180	19415.085938
1116.310547	19524.574219
1115.210938	19390.748047
1114.110352	19575.199219
1113.010742	19232.345703
1111.910156	19521.263672
1110.809570	19096.791016
1109.708984	18999.531250
1108.607422	19147.531250
1107.506836	19102.509766
1106.405273	19164.177734
1105.303711	18828.728516
1104.201172	18906.304688
1103.098633	19172.095703
1101.996094	18834.591797
1100.893555	18771.552734
1099.791016	18792.400391
1098.687500	18335.091797
1097.583984	18496.492188
1096.480469	18460.753906
1095.376953	18660.552734
1094.272461	18359.888672
1093.167969	18362.681641
1092.063477	18193.470703
1090.958008	18506.281250
1089.853516	18348.421875
1088.748047	18599.992188
1087.642578	18652.466797
1086.536133	18745.611328
1085.430664	18822.890625
1084.324219	18651.568359
1083.217773	19187.451172
1082.110352	19151.642578
1081.003906	19411.675781
1079.896484	19337.449219
1078.789063	19554.437500
1077.680664	19744.248047
1076.573242	19780.548828
1075.464844	19640.884766
1074.356445	19832.802734
1073.247070	19920.914063
1072.138672	19713.675781
1071.029297	19781.488281
1069.919922	19853.777344
1068.809570	19621.902344
1067.700195	19489.230469
1066.589844	19171.964844
1065.479492	19329.865234
1064.368164	19186.085938
1063.257813	19168.384766
1062.146484	19220.435547
1061.035156	18937.306641
1059.922852	18836.458984
1058.811523	19097.642578
1057.699219	18596.677734
1056.586914	18599.345703
1055.473633	18282.953125
1054.361328	18386.771484
1053.248047	18387.234375
1052.134766	18529.154297
1051.021484	18480.193359
1049.907227	18491.849609
1048.792969	18420.476563
1047.678711	18508.416016
1046.564453	18569.398438
1045.449219	18572.050781
1044.333984	18684.556641
1043.218750	18476.478516
1042.103516	18757.025391
1040.987305	18631.919922
1039.871094	18847.345703
1038.754883	18993.251953
1037.638672	18724.873047
1036.521484	19199.800781
1035.404297	19217.960938
1034.287109	19330.085938
1033.169922	18952.248047
1032.051758	19540.765625
1030.933594	19375.468750
1029.815430	19413.681641
1028.697266	19518.927734
1027.578125	19449.828125
1026.458984	19577.357422
1025.339844	19910.318359
1024.220703	19814.375000
1023.100586	20039.970703
1021.980469	19941.804688
1020.860352	20053.455078
1019.740234	20207.445313
1018.619141	20452.824219
1017.498047	20397.019531
1016.376953	20318.943359
1015.255859	20430.376953
1014.133789	20448.156250
1013.011719	20303.267578
1011.889648	20301.015625
1010.767578	20374.486328
1009.644531	20412.294922
1008.521484	20325.416016
1007.398438	20125.062500
1006.274414	19989.328125
1005.151367	19953.765625
1004.027344	19931.560547
1002.902344	19718.121094
1001.778320	19927.197266
1000.653320	19704.958984
999.528320	19860.605469
998.403320	19765.119141
997.278320	19534.171875
996.152344	19785.244141
995.026367	19656.527344
993.900391	19747.628906
992.773438	19565.708984
991.646484	19752.197266
990.519531	19714.546875
989.392578	20215.853516
988.265625	20135.984375
987.137695	20206.896484
986.009766	20200.201172
984.881836	20337.541016
983.752930	20490.326172
982.624023	20510.146484
981.495117	20428.091797
980.366211	20445.699219
979.236328	20193.257813
978.106445	20241.886719
976.976563	20332.529297
975.846680	20170.964844
974.715820	20235.042969
973.585938	19786.140625
972.454102	19845.849609
971.323242	19730.941406
970.191406	19324.423828
969.060547	19589.630859
967.927734	19693.494141
966.795898	19655.996094
965.663086	19848.097656
964.530273	19786.298828
963.397461	20141.568359
962.264648	20282.689453
961.130859	20829.572266
959.997070	20957.242188
958.863281	20727.707031
957.729492	20908.238281
956.594727	21216.498047
955.459961	20993.662109
954.325195	20671.804688
953.189453	20339.078125
952.053711	20222.261719
950.917969	19876.572266
949.782227	19726.898438
948.646484	19632.291016
947.509766	19082.388672
946.373047	19397.017578
945.235352	19047.492188
944.098633	19311.425781
942.960938	19309.314453
941.823242	19219.312500
940.685547	19195.250000
939.546875	19261.246094
938.408203	19406.257813
937.269531	19197.761719
936.129883	19643.406250
934.991211	19456.888672
933.851563	19555.650391
932.711914	19904.404297
931.571289	19930.656250
930.431641	20160.779297
929.291016	20129.968750
928.149414	20338.029297
927.008789	20399.205078
925.867188	20256.648438
924.725586	20201.748047
923.583984	20573.802734
922.441406	19875.312500
921.299805	19625.759766
920.157227	19483.525391
919.013672	19216.667969
917.871094	19002.416016
916.727539	18838.546875
915.583984	18480.199219
914.439453	18508.839844
913.295898	18526.541016
912.151367	18155.390625
911.006836	18221.207031
909.861328	18376.517578
908.716797	18247.962891
907.571289	18060.535156
906.424805	18300.873047
905.279297	18157.146484
904.132813	18556.568359
902.986328	18044.326172
901.839844	18107.857422
900.692383	18145.203125
899.545898	18343.785156
898.398438	18123.980469
897.250000	18285.447266
896.102539	18024.375000
894.954102	17944.123047
893.805664	18349.302734
892.656250	18292.949219
891.507813	18382.390625
890.358398	18265.144531
889.208984	18154.474609
888.058594	18091.687500
886.908203	17894.154297
885.758789	17811.888672
884.607422	17873.062500
883.457031	18005.890625
882.305664	17899.763672
881.154297	17722.029297
880.002930	17668.109375
878.850586	17724.896484
877.698242	17788.167969
876.545898	17773.312500
875.393555	17810.513672
874.240234	17576.654297
873.086914	17572.691406
871.933594	17629.414063
870.780273	17601.601563
869.625977	17413.488281
868.471680	17496.195313
867.317383	17496.578125
866.162109	17525.103516
865.007813	17434.570313
863.852539	17547.486328
862.696289	17305.542969
861.541016	17420.599609
860.384766	17271.777344
859.228516	17488.400391
858.072266	17279.105469
856.915039	17288.166016
855.757813	17245.369141
854.600586	17427.234375
853.442383	17226.775391
852.285156	17415.037109
851.126953	17598.894531
849.968750	17530.171875
848.809570	17237.085938
847.650391	17384.185547
846.491211	17367.310547
845.332031	17121.892578
844.171875	17352.982422
843.012695	17288.708984
841.851563	17332.197266
840.691406	17112.853516
839.530273	17240.353516
838.369141	17296.736328
837.208008	17333.718750
836.046875	17207.113281
834.884766	17188.152344
833.722656	17276.759766
832.560547	17247.033203
831.397461	17380.740234
830.234375	17245.662109
829.071289	17329.871094
827.908203	17418.339844
826.744141	17214.591797
825.580078	17154.841797
824.416016	17438.695313
823.251953	17209.314453
822.086914	17198.968750
820.921875	17276.607422
819.756836	17244.794922
818.590820	17258.037109
817.425781	17412.804688
816.259766	17413.136719
815.092773	17327.728516
813.926758	17265.929688
812.759766	17392.697266
811.592773	17408.021484
810.424805	17384.791016
809.257813	17635.619141
808.089844	17094.333984
806.920898	17178.187500
805.752930	17202.093750
804.583984	17243.099609
803.415039	17269.117188
802.246094	17117.658203
801.076172	17359.587891
799.906250	17436.845703
798.736328	17255.535156
797.566406	17217.425781
796.395508	17175.062500
795.224609	17382.535156
794.053711	17545.080078
792.881836	17935.912109
791.710938	18236.947266
790.538086	18676.505859
789.366211	18729.832031
788.194336	19034.740234
787.021484	19273.423828
785.848633	19371.332031
784.674805	18991.890625
783.500977	18849.087891
782.327148	18608.376953
781.153320	18295.375000
779.979492	18076.185547
778.804688	18163.580078
777.629883	18197.736328
776.454102	18027.644531
775.279297	18104.351563
774.103516	17604.757813
772.927734	17957.896484
771.750977	17805.011719
770.575195	17811.570313
769.398438	17788.380859
768.220703	18117.785156
767.043945	18224.068359
765.866211	18094.642578
764.688477	18457.708984
763.510742	18610.521484
762.332031	18729.318359
761.153320	18937.144531
759.974609	19426.916016
758.794922	20185.718750
757.616211	20280.724609
756.436523	21189.439453
755.255859	21832.904297
754.076172	23507.630859
752.895508	24804.636719
751.714844	26607.060547
750.533203	28876.457031
749.352539	31386.062500
748.170898	34307.089844
746.988281	37247.933594
745.806641	39593.164063
744.624023	42379.210938
743.441406	45430.320313
742.258789	49137.277344
741.075195	54207.437500
739.891602	60365.250000
738.708008	66207.679688
737.523438	73449.390625
736.339844	79100.375000
735.155273	82627.765625
733.969727	83309.320313
732.785156	81092.148438
731.599609	75404.601563
730.414063	68711.789063
729.227539	60972.257813
728.041992	52751.535156
726.855469	45611.285156
725.667969	39030.437500
724.481445	34114.308594
723.293945	30566.966797
722.106445	27579.107422
720.918945	25579.689453
719.730469	23760.039063
718.541992	22658.572266
717.353516	21294.712891
716.164063	20871.384766
714.975586	19870.138672
713.786133	19529.294922
712.595703	19058.330078
711.406250	18648.501953
710.215820	18291.369141
709.025391	18089.783203
707.833984	18190.589844
706.642578	17804.419922
705.451172	18096.193359
704.259766	17924.201172
703.068359	17957.832031
701.875977	17695.781250
700.683594	17981.017578
699.490234	18232.585938
698.297852	18729.205078
697.104492	18850.593750
695.910156	19690.335938
694.716797	19819.820313
693.522461	20296.769531
692.328125	20444.890625
691.132813	20921.472656
689.938477	21002.431641
688.743164	21010.144531
687.547852	21036.671875
686.351563	20688.962891
685.155273	20190.919922
683.958984	20102.681641
682.762695	19427.417969
681.565430	19128.433594
680.368164	18881.789063
679.170898	18553.837891
677.973633	18562.083984
676.775391	18173.835938
675.577148	18240.582031
674.378906	18119.570313
673.179688	18163.355469
671.980469	18023.650391
670.781250	18021.578125
669.581055	18027.841797
668.381836	17938.263672
667.181641	18194.492188
665.980469	18161.140625
664.780273	17917.523438
663.579102	17934.203125
662.377930	18136.085938
661.175781	18350.357422
659.973633	18566.607422
658.771484	18770.279297
657.569336	18965.541016
656.367188	19682.443359
655.164063	19929.353516
653.960938	20275.876953
652.756836	20580.693359
651.552734	20899.906250
650.348633	21426.591797
649.144531	21830.562500
647.939453	22057.949219
646.735352	22364.070313
645.529297	22545.591797
644.324219	22629.556641
643.118164	22790.195313
641.912109	22919.664063
640.706055	22833.544922
639.499023	22755.750000
638.292969	22116.632813
637.084961	21983.123047
635.877930	21723.373047
634.669922	21952.259766
633.461914	21729.884766
632.253906	21718.652344
631.044922	21320.605469
629.836914	21156.431641
628.626953	21106.052734
627.417969	21148.714844
626.208008	20910.291016
624.998047	20640.984375
623.788086	20442.035156
622.577148	20342.306641
621.366211	19889.552734
620.155273	19501.000000
618.944336	19007.371094
617.732422	19042.175781
616.520508	18656.146484
615.308594	18266.169922
614.095703	18068.126953
612.882813	18024.777344
611.669922	17779.478516
610.457031	17678.521484
609.243164	17351.015625
608.029297	17099.859375
606.815430	17283.269531
605.600586	16787.279297
604.385742	16789.566406
603.170898	16942.052734
601.955078	16948.414063
600.740234	16792.298828
599.524414	16695.882813
598.307617	16852.357422
597.091797	16848.453125
595.875000	16873.314453
594.658203	16900.218750
593.440430	17202.314453
592.222656	17163.421875
591.004883	16828.941406
589.787109	16905.083984
588.568359	16940.150391
587.349609	16827.501953
586.130859	16848.210938
584.912109	16936.576172
583.692383	16891.650391
582.472656	16867.240234
581.251953	16941.191406
580.032227	17148.263672
578.811523	17377.765625
577.589844	17492.496094
576.369141	17922.427734
575.147461	17985.810547
573.925781	18431.794922
572.703125	18568.671875
571.481445	18723.892578
570.258789	18999.679688
569.035156	19301.912109
567.812500	19640.791016
566.588867	19934.558594
565.365234	20136.261719
564.140625	20339.912109
562.916992	20435.246094
561.692383	20226.363281
560.466797	20460.460938
559.242188	20108.833984
558.016602	20059.289063
556.791016	19714.035156
555.564453	19523.906250
554.337891	19085.160156
553.111328	18919.720703
551.884766	18536.332031
550.657227	18269.236328
549.429688	18000.228516
548.202148	18097.861328
546.974609	17900.265625
545.746094	17739.394531
544.517578	17820.740234
543.288086	17900.011719
542.058594	17857.212891
540.829102	17865.267578
539.599609	17883.484375
538.370117	17680.154297
537.139648	17444.406250
535.909180	17501.300781
534.677734	17775.488281
533.446289	17541.910156
532.214844	17338.890625
530.983398	17176.556641
529.750977	17225.326172
528.519531	17010.345703
527.286133	16941.494141
526.053711	16828.064453
524.820313	16990.392578
523.586914	16854.707031
522.353516	16838.634766
521.119141	16848.906250
519.884766	16822.714844
518.650391	16721.613281
517.415039	16776.439453
516.179688	16796.832031
514.944336	16493.455078
513.708984	16582.685547
