#Wave		#Intensity
1585.210938	10008.067383
1584.209961	9988.085938
1583.208984	10150.827148
1582.208008	9874.096680
1581.206055	9971.894531
1580.204102	9884.979492
1579.202148	9803.089844
1578.200195	9860.927734
1577.198242	9971.116211
1576.195313	9814.453125
1575.192383	9927.097656
1574.189453	9915.072266
1573.186523	9927.969727
1572.182617	9821.273438
1571.178711	9826.711914
1570.174805	9959.159180
1569.170898	10054.202148
1568.166992	9912.714844
1567.162109	10032.616211
1566.158203	9968.330078
1565.153320	9622.944336
1564.147461	9780.139648
1563.142578	9793.035156
1562.136719	9925.267578
1561.130859	9821.294922
1560.125000	10005.656250
1559.119141	10172.546875
1558.113281	10093.429688
1557.106445	10218.008789
1556.099609	10518.843750
1555.092773	10650.730469
1554.084961	10792.492188
1553.078125	10700.916992
1552.070313	10688.777344
1551.062500	10800.672852
1550.054688	10709.152344
1549.045898	10486.250977
1548.038086	10446.893555
1547.029297	10494.301758
1546.020508	10407.875000
1545.011719	10224.858398
1544.001953	10225.218750
1542.992188	10128.993164
1541.982422	9995.667969
1540.972656	10053.010742
1539.962891	9677.206055
1538.952148	9784.079102
1537.942383	9551.974609
1536.931641	9626.673828
1535.919922	9619.735352
1534.909180	9491.649414
1533.897461	9660.247070
1532.886719	9532.205078
1531.874023	9554.940430
1530.862305	9530.728516
1529.850586	9452.189453
1528.837891	9361.334961
1527.825195	9603.812500
1526.812500	9542.583984
1525.799805	9548.011719
1524.786133	9496.688477
1523.772461	9499.655273
1522.758789	9482.890625
1521.745117	9525.311523
1520.731445	9673.720703
1519.716797	9647.069336
1518.702148	9502.145508
1517.687500	9537.133789
1516.672852	9682.952148
1515.657227	9624.304688
1514.642578	9784.817383
1513.626953	9544.005859
1512.610352	9672.472656
1511.594727	9754.132813
1510.579102	9734.891602
1509.562500	9673.842773
1508.545898	9602.983398
1507.529297	9600.994141
1506.511719	9876.774414
1505.494141	9857.525391
1504.477539	9843.197266
1503.458984	9843.615234
1502.441406	9868.592773
1501.423828	9878.827148
1500.405273	9827.678711
1499.386719	9987.644531
1498.368164	9843.239258
1497.348633	9855.920898
1496.330078	10133.526367
1495.310547	9918.055664
1494.291016	10031.246094
1493.271484	9989.943359
1492.250977	9889.832031
1491.231445	10037.263672
1490.210938	9932.284180
1489.190430	9966.967773
1488.168945	10082.453125
1487.148438	10068.121094
1486.126953	10026.866211
1485.105469	10171.635742
1484.083984	10193.997070
1483.061523	10184.543945
1482.040039	10248.473633
1481.017578	10297.702148
1479.995117	10591.403320
1478.971680	10564.762695
1477.949219	10516.137695
1476.925781	10572.599609
1475.902344	10726.751953
1474.878906	10976.093750
1473.855469	11056.841797
1472.831055	11323.099609
1471.806641	11354.922852
1470.782227	11647.851563
1469.757813	11682.033203
1468.733398	12033.316406
1467.708008	12225.927734
1466.682617	12545.251953
1465.657227	12961.956055
1464.631836	13273.681641
1463.605469	13619.393555
1462.579102	13964.959961
1461.552734	14290.896484
1460.526367	14743.333008
1459.500000	14750.011719
1458.472656	15056.105469
1457.445313	15001.871094
1456.417969	14665.397461
1455.390625	14625.861328
1454.362305	14221.500000
1453.334961	13902.416992
1452.306641	13564.016602
1451.277344	13116.371094
1450.249023	12809.865234
1449.219727	12503.486328
1448.191406	12192.375977
1447.162109	11976.114258
1446.131836	11951.772461
1445.102539	11922.584961
1444.072266	11636.123047
1443.041992	11599.731445
1442.011719	11410.501953
1440.981445	11405.706055
1439.950195	11359.681641
1438.918945	11216.688477
1437.887695	11017.996094
1436.856445	11134.467773
1435.825195	11035.225586
1434.792969	10831.848633
1433.760742	10928.906250
1432.728516	10645.718750
1431.696289	10674.980469
1430.663086	10621.926758
1429.629883	10334.136719
1428.596680	10511.043945
1427.563477	10308.066406
1426.530273	10100.335938
1425.496094	10163.525391
1424.461914	10023.604492
1423.427734	10185.885742
1422.393555	9801.935547
1421.358398	9973.858398
1420.323242	10049.083008
1419.288086	9967.291992
1418.252930	10182.535156
1417.217773	10011.425781
1416.181641	10248.291016
1415.145508	9992.779297
1414.109375	10352.592773
1413.073242	10384.207031
1412.036133	10456.804688
1411.000000	10452.215820
1409.962891	10777.882813
1408.924805	10898.553711
1407.887695	10920.379883
1406.849609	11277.062500
1405.812500	11599.875000
1404.773438	11989.979492
1403.735352	12389.551758
1402.697266	12721.557617
1401.658203	13000.478516
1400.619141	13041.078125
1399.580078	13228.402344
1398.540039	13244.884766
1397.500977	13208.458008
1396.460938	13395.627930
1395.420898	13162.088867
1394.380859	13250.661133
1393.339844	12820.235352
1392.298828	12807.952148
1391.257813	12565.121094
1390.216797	12744.981445
1389.175781	12581.482422
1388.133789	12646.059570
1387.091797	12914.573242
1386.049805	13259.744141
1385.007813	13523.218750
1383.964844	13964.041016
1382.922852	14253.629883
1381.879883	14943.410156
1380.835938	15570.590820
1379.792969	15900.393555
1378.749023	16237.244141
1377.706055	16487.730469
1376.661133	17070.957031
1375.617188	17124.847656
1374.573242	16936.962891
1373.528320	16986.070313
1372.483398	16917.919922
1371.438477	16797.171875
1370.392578	16391.875000
1369.347656	15876.756836
1368.301758	15820.843750
1367.255859	15074.220703
1366.208984	14805.824219
1365.163086	14465.867188
1364.116211	14379.240234
1363.069336	13932.048828
1362.022461	13683.212891
1360.974609	13644.542969
1359.927734	13543.836914
1358.879883	13798.698242
1357.832031	13499.997070
1356.783203	13823.926758
1355.735352	13725.648438
1354.686523	13925.420898
1353.637695	14351.547852
1352.588867	14579.701172
1351.539063	14976.919922
1350.490234	15474.019531
1349.440430	16290.041992
1348.390625	16650.933594
1347.339844	17297.343750
1346.290039	17336.558594
1345.239258	18353.767578
1344.188477	18944.691406
1343.137695	19509.201172
1342.085938	20325.550781
1341.034180	20345.064453
1339.982422	21217.943359
1338.930664	21329.943359
1337.878906	21586.837891
1336.826172	21765.228516
1335.773438	21846.164063
1334.720703	21504.384766
1333.667969	21350.300781
1332.614258	21644.892578
1331.561523	21130.128906
1330.507813	20779.291016
1329.453125	20509.250000
1328.399414	19912.037109
1327.344727	19471.570313
1326.290039	18718.363281
1325.235352	18510.599609
1324.180664	17757.910156
1323.125000	17536.216797
1322.070313	17196.185547
1321.014648	16785.253906
1319.958008	16374.491211
1318.902344	15937.863281
1317.845703	15451.717773
1316.789063	15372.750977
1315.732422	15123.490234
1314.675781	14860.142578
1313.618164	14587.446289
1312.560547	14395.244141
1311.502930	14170.031250
1310.445313	13918.916992
1309.386719	13632.468750
1308.329102	13554.007813
1307.270508	13260.669922
1306.210938	12830.506836
1305.152344	12766.426758
1304.092773	12770.816406
1303.033203	12513.281250
1301.973633	12428.073242
1300.914063	12199.020508
1299.853516	11894.602539
1298.792969	12031.197266
1297.732422	11769.370117
1296.671875	11573.639648
1295.611328	11580.623047
1294.549805	11422.704102
1293.488281	11267.206055
1292.426758	11361.370117
1291.364258	11130.615234
1290.302734	11010.581055
1289.240234	11191.804688
1288.177734	11163.561523
1287.114258	11299.983398
1286.051758	11074.184570
1284.988281	11236.428711
1283.924805	11290.471680
1282.861328	11570.111328
1281.796875	11701.599609
1280.732422	11872.967773
1279.667969	11980.847656
1278.603516	12344.637695
1277.539063	12604.972656
1276.473633	12710.279297
1275.408203	13076.027344
1274.342773	13249.228516
1273.277344	13481.000000
1272.210938	13367.918945
1271.145508	13254.885742
1270.079102	13050.473633
1269.011719	13237.554688
1267.945313	12899.664063
1266.877930	12868.818359
1265.810547	12538.173828
1264.743164	12242.795898
1263.674805	11912.421875
1262.607422	11830.310547
1261.539063	11504.843750
1260.470703	11441.569336
1259.401367	10957.249023
1258.333008	11062.509766
1257.263672	10973.645508
1256.194336	10812.346680
1255.125000	10667.476563
1254.054688	10676.897461
1252.985352	10377.918945
1251.915039	10529.879883
1250.843750	10403.872070
1249.773438	10630.475586
1248.702148	10278.068359
1247.630859	10380.907227
1246.559570	10376.368164
1245.488281	10346.168945
1244.416016	10334.641602
1243.343750	10061.949219
1242.271484	10115.762695
1241.199219	10202.184570
1240.125977	10563.552734
1239.053711	10216.484375
1237.980469	10265.557617
1236.906250	10433.381836
1235.833008	10456.773438
1234.758789	10468.515625
1233.684570	10277.768555
1232.610352	10729.325195
1231.536133	10722.387695
1230.460938	10980.605469
1229.385742	10622.478516
1228.310547	10627.190430
1227.235352	10669.089844
1226.159180	10824.843750
1225.083008	10662.219727
1224.006836	10729.634766
1222.930664	10525.294922
1221.853516	10685.585938
1220.777344	10386.161133
1219.700195	10620.682617
1218.622070	10634.660156
1217.544922	10507.113281
1216.466797	10597.649414
1215.388672	10618.576172
1214.310547	10549.073242
1213.232422	10512.051758
1212.153320	10477.361328
1211.074219	10769.381836
1209.995117	10445.087891
1208.916016	10727.723633
1207.835938	10841.206055
1206.755859	10737.028320
1205.675781	10688.442383
1204.595703	10702.355469
1203.514648	10732.456055
1202.434570	10672.334961
1201.353516	10760.240234
1200.271484	10774.122070
1199.190430	10651.616211
1198.108398	10626.225586
1197.026367	10554.633789
1195.944336	10471.521484
1194.862305	10499.303711
1193.779297	10376.983398
1192.696289	10217.776367
1191.613281	10176.349609
1190.530273	10072.634766
1189.446289	10052.019531
1188.362305	9996.812500
1187.278320	9847.078125
1186.194336	9582.126953
1185.109375	9893.567383
1184.024414	9614.890625
1182.939453	9472.275391
1181.854492	9546.262695
1180.768555	9555.729492
1179.683594	9519.137695
1178.597656	9335.224609
1177.510742	9337.823242
1176.424805	9340.419922
1175.337891	9269.392578
1174.250977	9122.490234
1173.164063	9283.807617
1172.077148	9284.111328
1170.989258	9222.349609
1169.901367	9215.769531
1168.813477	9181.620117
1167.724609	9276.127930
1166.636719	9299.396484
1165.547852	9194.065430
1164.458984	9299.986328
1163.369141	9217.651367
1162.280273	9298.277344
1161.190430	9259.567383
1160.100586	9204.817383
1159.010742	9195.955078
1157.919922	9377.394531
1156.829102	9194.285156
1155.738281	9309.183594
1154.647461	9236.147461
1153.555664	9442.618164
1152.464844	9472.645508
1151.373047	9532.427734
1150.280273	9514.346680
1149.188477	9402.430664
1148.095703	9462.186523
1147.002930	9803.317383
1145.910156	9728.006836
1144.817383	9716.759766
1143.723633	9627.780273
1142.629883	9815.426758
1141.536133	9721.891602
1140.441406	9648.960938
1139.347656	9669.719727
1138.252930	9647.075195
1137.158203	9802.541992
1136.062500	9542.457031
1134.967773	9528.981445
1133.872070	9609.069336
1132.776367	9474.668945
1131.679688	9582.102539
1130.583984	9664.404297
1129.487305	9564.276367
1128.390625	9580.440430
1127.292969	9685.476563
1126.196289	9630.974609
1125.098633	9626.610352
1124.000977	9738.398438
1122.903320	9576.900391
1121.804688	9629.459961
1120.706055	9675.168945
1119.607422	9593.428711
1118.508789	9589.074219
1117.409180	9475.543945
1116.310547	9603.106445
1115.210938	9544.185547
1114.110352	9460.286133
1113.010742	9642.306641
1111.910156	9276.689453
1110.809570	9581.332031
1109.708984	9667.822266
1108.607422	9504.513672
1107.506836	9445.697266
1106.405273	9348.324219
1105.303711	9355.368164
1104.201172	9389.632813
1103.098633	9158.514648
1101.996094	9217.748047
1100.893555	9240.681641
1099.791016	9329.335938
1098.687500	9102.961914
1097.583984	9019.418945
1096.480469	9083.144531
1095.376953	9160.428711
1094.272461	9158.434570
1093.167969	9040.994141
1092.063477	9138.604492
1090.958008	8987.278320
1089.853516	9125.574219
1088.748047	9076.090820
1087.642578	8847.994141
1086.536133	9119.608398
1085.430664	9076.936523
1084.324219	8971.010742
1083.217773	8928.388672
1082.110352	9073.256836
1081.003906	9107.409180
1079.896484	9137.029297
1078.789063	9067.318359
1077.680664	8884.798828
1076.573242	9025.002930
1075.464844	8957.614258
1074.356445	9239.821289
1073.247070	8901.841797
1072.138672	8969.779297
1071.029297	9107.553711
1069.919922	9155.134766
1068.809570	9017.964844
1067.700195	9151.131836
1066.589844	8964.481445
1065.479492	9061.578125
1064.368164	9140.625977
1063.257813	9174.630859
1062.146484	9240.118164
1061.035156	9159.367188
1059.922852	9204.587891
1058.811523	9193.579102
1057.699219	9229.778320
1056.586914	9160.334961
1055.473633	9102.155273
1054.361328	9275.379883
1053.248047	9147.576172
1052.134766	9105.152344
1051.021484	9410.709961
1049.907227	9294.180664
1048.792969	9379.655273
1047.678711	9256.451172
1046.564453	9247.690430
1045.449219	9330.874023
1044.333984	9326.583984
1043.218750	9423.161133
1042.103516	9344.898438
1040.987305	9268.909180
1039.871094	9414.712891
1038.754883	9623.158203
1037.638672	9327.732422
1036.521484	9507.001953
1035.404297	9330.345703
1034.287109	9576.660156
1033.169922	9646.139648
1032.051758	9740.189453
1030.933594	9738.045898
1029.815430	9738.138672
1028.697266	9883.510742
1027.578125	9675.752930
1026.458984	9769.688477
1025.339844	9950.692383
1024.220703	9881.506836
1023.100586	10035.613281
1021.980469	9970.902344
1020.860352	9986.558594
1019.740234	10093.682617
1018.619141	10263.217773
1017.498047	10256.494141
1016.376953	10127.141602
1015.255859	10151.657227
1014.133789	10064.727539
1013.011719	10247.446289
1011.889648	10258.550781
1010.767578	10209.514648
1009.644531	10269.608398
1008.521484	10147.125000
1007.398438	10082.563477
1006.274414	10298.409180
1005.151367	10115.929688
1004.027344	10049.190430
1002.902344	9942.452148
1001.778320	9998.059570
1000.653320	10195.898438
999.528320	10106.974609
998.403320	9906.999023
997.278320	9951.455078
996.152344	9987.006836
995.026367	9920.407227
993.900391	9884.913086
992.773438	9789.512695
991.646484	9745.186523
990.519531	9649.857422
989.392578	9849.545898
988.265625	9840.710938
987.137695	9752.072266
986.009766	9816.402344
984.881836	9925.021484
983.752930	10015.868164
982.624023	9869.676758
981.495117	9980.423828
980.366211	9854.229492
979.236328	9949.434570
978.106445	9969.355469
976.976563	9887.494141
975.846680	9865.391602
974.715820	9852.143555
973.585938	9872.065430
972.454102	9790.294922
971.323242	9883.150391
970.191406	9847.811523
969.060547	9887.594727
967.927734	9810.306641
966.795898	10128.291992
965.663086	10159.152344
964.530273	10324.629883
963.397461	10339.986328
962.264648	10441.371094
961.130859	10489.776367
959.997070	10635.183594
958.863281	10623.997070
957.729492	10861.880859
956.594727	10407.718750
955.459961	10691.808594
954.325195	10321.584961
953.189453	10039.612305
952.053711	10138.651367
950.917969	9942.688477
949.782227	9903.060547
948.646484	9771.041992
947.509766	9612.684570
946.373047	9603.942383
945.235352	9582.011719
944.098633	9597.459961
942.960938	9375.544922
941.823242	9377.846680
940.685547	9525.132813
939.546875	9523.005859
938.408203	9527.466797
937.269531	9516.557617
936.129883	9722.937500
934.991211	9698.821289
933.851563	9580.381836
932.711914	9696.680664
931.571289	9733.983398
930.431641	9679.191406
929.291016	9606.887695
928.149414	9556.529297
927.008789	9705.561523
925.867188	9703.389648
924.725586	9755.965820
923.583984	9705.615234
922.441406	9596.186523
921.299805	9451.790039
920.157227	9640.023438
919.013672	9381.933594
917.871094	9497.927734
916.727539	9312.136719
915.583984	9187.635742
914.439453	9074.117188
913.295898	9133.262695
912.151367	9133.399414
911.006836	9050.542969
909.861328	9264.682617
908.716797	9190.564453
907.571289	9002.986328
906.424805	9162.437500
905.279297	9110.205078
904.132813	8975.115234
902.986328	9173.713867
901.839844	9003.787109
900.692383	9289.472656
899.545898	9315.713867
898.398438	9187.261719
897.250000	9152.525391
896.102539	9324.679688
894.954102	9202.839844
893.805664	9152.884766
892.656250	9181.292969
891.507813	9333.702148
890.358398	9201.090820
889.208984	9059.839844
888.058594	9231.739258
886.908203	9175.318359
885.758789	9142.828125
884.607422	9095.142578
883.457031	9077.888672
882.305664	8952.053711
881.154297	8865.357422
880.002930	9008.803711
878.850586	8844.000977
877.698242	9028.612305
876.545898	8994.038086
875.393555	9020.205078
874.240234	8894.576172
873.086914	8834.038086
871.933594	8819.041992
870.780273	8879.892578
869.625977	8936.381836
868.471680	8849.895508
867.317383	9044.951172
866.162109	8913.014648
865.007813	8828.753906
863.852539	8848.399414
862.696289	8928.613281
861.541016	8885.500977
860.384766	8963.505859
859.228516	8807.978516
858.072266	8898.933594
856.915039	8682.981445
855.757813	8992.135742
854.600586	8983.623047
853.442383	8893.049805
852.285156	8845.699219
851.126953	9033.653320
849.968750	8917.231445
848.809570	8936.790039
847.650391	8880.839844
846.491211	8852.950195
845.332031	8756.077148
844.171875	8820.919922
843.012695	8810.301758
841.851563	8758.750000
840.691406	8937.717773
839.530273	8664.327148
838.369141	8838.927734
837.208008	8796.023438
836.046875	8847.835938
834.884766	8884.561523
833.722656	8581.371094
832.560547	8745.035156
831.397461	8831.213867
830.234375	8891.555664
829.071289	8790.669922
827.908203	8911.159180
826.744141	8883.357422
825.580078	8819.053711
824.416016	8705.389648
823.251953	8836.519531
822.086914	8804.463867
820.921875	8774.568359
819.756836	8903.445313
818.590820	8845.655273
817.425781	8822.202148
816.259766	8790.182617
815.092773	8813.906250
813.926758	8717.612305
812.759766	8848.464844
811.592773	8876.441406
810.424805	8902.262695
809.257813	8829.584961
808.089844	8791.187500
806.920898	8729.266602
805.752930	8791.467773
804.583984	8755.242188
803.415039	8862.318359
802.246094	8689.252930
801.076172	8845.458984
799.906250	9031.512695
798.736328	8856.387695
797.566406	8912.047852
796.395508	8903.611328
795.224609	8922.934570
794.053711	9149.314453
792.881836	9083.203125
791.710938	9345.715820
790.538086	9311.586914
789.366211	9217.755859
788.194336	9490.716797
787.021484	9224.212891
785.848633	9081.443359
784.674805	9121.988281
783.500977	8960.133789
782.327148	9085.879883
781.153320	8817.638672
779.979492	9137.084961
778.804688	8973.242188
777.629883	8981.833984
776.454102	8947.872070
775.279297	9033.033203
774.103516	8848.097656
772.927734	8950.248047
771.750977	8820.675781
770.575195	8912.160156
769.398438	8901.625977
768.220703	8982.428711
767.043945	8995.240234
765.866211	9012.291992
764.688477	9046.315430
763.510742	9029.392578
762.332031	9264.945313
761.153320	9067.685547
759.974609	9173.762695
758.794922	9245.869141
757.616211	9349.736328
756.436523	9423.886719
755.255859	9593.342773
754.076172	9652.574219
752.895508	9868.488281
751.714844	10008.083008
750.533203	10149.729492
749.352539	10471.191406
748.170898	10733.263672
746.988281	11587.493164
745.806641	12335.590820
744.624023	13478.720703
743.441406	15048.318359
742.258789	16807.396484
741.075195	20072.132813
739.891602	23650.115234
738.708008	27655.169922
737.523438	32053.216797
736.339844	35769.531250
735.155273	38618.859375
733.969727	39721.945313
732.785156	38995.617188
731.599609	36860.816406
730.414063	33341.707031
729.227539	29556.494141
728.041992	24972.150391
726.855469	21641.498047
725.667969	18558.837891
724.481445	16075.720703
723.293945	14297.010742
722.106445	12980.136719
720.918945	11941.677734
719.730469	11229.837891
718.541992	10796.006836
717.353516	10450.708984
716.164063	10336.865234
714.975586	9905.638672
713.786133	9522.948242
712.595703	9438.811523
711.406250	9478.657227
710.215820	9226.544922
709.025391	9249.622070
707.833984	9272.687500
706.642578	9146.723633
705.451172	9247.440430
704.259766	9073.288086
703.068359	9064.909180
701.875977	9073.308594
700.683594	9148.789063
699.490234	9014.639648
698.297852	9085.906250
697.104492	9077.530273
695.910156	9347.725586
694.716797	9376.984375
693.522461	9299.458984
692.328125	9755.695313
691.132813	9473.045898
689.938477	9709.361328
688.743164	9738.500000
687.547852	9752.986328
686.351563	10028.794922
685.155273	9683.698242
683.958984	9558.176758
682.762695	9501.655273
681.565430	9332.369141
680.368164	9332.306641
679.170898	9232.032227
677.973633	9240.340820
676.775391	9227.776367
675.577148	9332.050781
674.378906	9058.742188
673.179688	8977.410156
671.980469	9062.904297
670.781250	9150.442383
669.581055	9131.661133
668.381836	9171.223633
667.181641	9304.499023
665.980469	9237.795898
664.780273	9310.616211
663.579102	9281.408203
662.377930	9474.881836
661.175781	9562.159180
659.973633	9559.952148
658.771484	9728.270508
657.569336	10035.810547
656.367188	10058.437500
655.164063	10004.161133
653.960938	10213.772461
652.756836	10367.202148
651.552734	10267.203125
650.348633	10418.472656
649.144531	10463.807617
647.939453	10469.692383
646.735352	10583.460938
645.529297	10659.839844
644.324219	10561.980469
643.118164	10735.774414
641.912109	10739.511719
640.706055	10689.365234
639.499023	10817.424805
638.292969	10835.638672
637.084961	10922.184570
635.877930	11050.098633
634.669922	11416.002930
633.461914	11711.373047
632.253906	11764.529297
631.044922	12059.680664
629.836914	12402.260742
628.626953	12275.335938
627.417969	12297.301758
626.208008	12275.857422
624.998047	11791.601563
623.788086	11600.896484
622.577148	11449.517578
621.366211	11089.669922
620.155273	11091.232422
618.944336	10514.935547
617.732422	10322.678711
616.520508	9981.987305
615.308594	9814.689453
614.095703	9808.293945
612.882813	9484.447266
611.669922	9428.666992
610.457031	9290.496094
609.243164	9129.728516
608.029297	9061.710938
606.815430	9172.857422
605.600586	9187.202148
604.385742	9166.551758
603.170898	9121.219727
601.955078	9152.020508
600.740234	8864.030273
599.524414	8954.503906
598.307617	9007.932617
597.091797	8868.147461
595.875000	8954.445313
594.658203	8884.581055
593.440430	9009.855469
592.222656	8995.448242
591.004883	8841.456055
589.787109	9038.483398
588.568359	8968.676758
587.349609	9048.654297
586.130859	8872.229492
584.912109	9087.518555
583.692383	9146.911133
582.472656	9042.316406
581.251953	9265.611328
580.032227	9261.414063
578.811523	9361.669922
577.589844	9263.262695
576.369141	9449.449219
575.147461	9365.392578
573.925781	9412.328125
572.703125	9457.196289
571.481445	9459.093750
570.258789	9638.881836
569.035156	9839.027344
567.812500	9791.782227
566.588867	9867.157227
565.365234	9875.082031
564.140625	9901.384766
562.916992	9862.333984
561.692383	9800.844727
560.466797	9837.348633
559.242188	9910.564453
558.016602	9845.025391
556.791016	9859.056641
555.564453	9642.668945
554.337891	9636.354492
553.111328	9619.851563
551.884766	9801.005859
550.657227	9619.461914
549.429688	9700.733398
548.202148	9729.025391
546.974609	9557.800781
545.746094	9742.828125
544.517578	9673.417969
543.288086	9738.305664
542.058594	9583.506836
540.829102	9697.184570
539.599609	9861.631836
538.370117	9883.732422
537.139648	9594.931641
535.909180	9657.711914
534.677734	9631.097656
533.446289	9602.464844
532.214844	9545.423828
530.983398	9255.003906
529.750977	9390.835938
528.519531	9169.560547
527.286133	9311.432617
526.053711	9244.383789
524.820313	9173.311523
523.586914	9205.636719
522.353516	9219.709961
521.119141	9245.930664
519.884766	9316.697266
518.650391	9280.111328
517.415039	9124.099609
516.179688	9087.574219
514.944336	9099.627930
513.708984	9164.274414
