#Wave		#Intensity
1585.210938	8644.352539
1584.209961	8734.267578
1583.208984	8749.937500
1582.208008	8755.615234
1581.206055	8721.351563
1580.204102	8849.314453
1579.202148	8750.173828
1578.200195	8763.329102
1577.198242	8771.489258
1576.195313	8632.529297
1575.192383	8705.531250
1574.189453	8643.909180
1573.186523	8814.063477
1572.182617	8874.524414
1571.178711	8862.722656
1570.174805	8766.250977
1569.170898	8694.718750
1568.166992	8670.513672
1567.162109	8994.758789
1566.158203	8706.736328
1565.153320	8655.176758
1564.147461	8621.048828
1563.142578	8733.657227
1562.136719	8731.848633
1561.130859	8911.501953
1560.125000	8904.685547
1559.119141	8793.513672
1558.113281	8945.714844
1557.106445	8941.378906
1556.099609	9316.973633
1555.092773	9262.908203
1554.084961	9288.293945
1553.078125	9082.875000
1552.070313	9172.796875
1551.062500	9064.230469
1550.054688	9161.558594
1549.045898	9276.203125
1548.038086	9120.579102
1547.029297	9056.726563
1546.020508	8861.561523
1545.011719	8911.755859
1544.001953	8887.617188
1542.992188	8979.885742
1541.982422	8869.081055
1540.972656	8750.896484
1539.962891	8825.809570
1538.952148	8499.826172
1537.942383	8530.227539
1536.931641	8560.616211
1535.919922	8590.992188
1534.909180	8453.230469
1533.897461	8651.705078
1532.886719	8437.373047
1531.874023	8383.737305
1530.862305	8433.879883
1529.850586	8481.530273
1528.837891	8618.058594
1527.825195	8408.890625
1526.812500	8394.808594
1525.799805	8215.386719
1524.786133	8418.472656
1523.772461	8350.125977
1522.758789	8501.306641
1521.745117	8326.942383
1520.731445	8653.098633
1519.716797	8427.013672
1518.702148	8457.303711
1517.687500	8475.262695
1516.672852	8562.183594
1515.657227	8528.394531
1514.642578	8551.250977
1513.626953	8524.863281
1512.610352	8599.394531
1511.594727	8548.399414
1510.579102	8627.814453
1509.562500	8569.456055
1508.545898	8700.474609
1507.529297	8797.018555
1506.511719	8659.999023
1505.494141	8761.425781
1504.477539	8693.268555
1503.458984	8637.421875
1502.441406	8827.208984
1501.423828	8768.901367
1500.405273	8587.864258
1499.386719	8718.631836
1498.368164	8692.284180
1497.348633	8717.472656
1496.330078	8723.025391
1495.310547	8650.094727
1494.291016	8797.875977
1493.271484	8786.247070
1492.250977	8666.777344
1491.231445	8711.541016
1490.210938	8729.335938
1489.190430	8776.516602
1488.168945	8838.371094
1487.148438	8792.466797
1486.126953	8891.010742
1485.105469	8717.845703
1484.083984	9012.119141
1483.061523	8961.322266
1482.040039	8927.667969
1481.017578	9043.197266
1479.995117	9102.445313
1478.971680	9156.779297
1477.949219	9325.955078
1476.925781	9414.426758
1475.902344	9380.716797
1474.878906	9598.586914
1473.855469	9743.108398
1472.831055	9594.605469
1471.806641	9690.250000
1470.782227	9678.479492
1469.757813	9771.625977
1468.733398	10040.367188
1467.708008	10138.276367
1466.682617	10348.308594
1465.657227	10346.162109
1464.631836	10417.134766
1463.605469	10778.059570
1462.579102	10909.820313
1461.552734	10878.327148
1460.526367	11165.870117
1459.500000	11105.118164
1458.472656	10983.532227
1457.445313	10891.202148
1456.417969	11047.105469
1455.390625	10803.966797
1454.362305	10818.750000
1453.334961	10444.443359
1452.306641	10072.722656
1451.277344	10043.892578
1450.249023	9947.027344
1449.219727	9653.391602
1448.191406	9707.258789
1447.162109	9569.233398
1446.131836	9538.107422
1445.102539	9409.883789
1444.072266	9347.248047
1443.041992	9454.508789
1442.011719	9578.708008
1440.981445	9195.880859
1439.950195	9252.174805
1438.918945	9315.718750
1437.887695	9187.724609
1436.856445	9214.899414
1435.825195	9082.130859
1434.792969	9206.222656
1433.760742	9129.221680
1432.728516	9006.239258
1431.696289	8938.995117
1430.663086	8949.239258
1429.629883	8828.790039
1428.596680	8839.051758
1427.563477	8721.093750
1426.530273	8709.604492
1425.496094	8804.519531
1424.461914	8638.287109
1423.427734	8679.999023
1422.393555	8670.942383
1421.358398	8760.952148
1420.323242	8686.659180
1419.288086	8779.041992
1418.252930	8576.799805
1417.217773	8645.024414
1416.181641	8780.801758
1415.145508	8877.912109
1414.109375	8864.000000
1413.073242	8871.802734
1412.036133	9038.769531
1411.000000	8964.552734
1409.962891	9155.535156
1408.924805	9365.718750
1407.887695	9570.994141
1406.849609	9735.229492
1405.812500	9949.975586
1404.773438	10299.486328
1403.735352	10449.019531
1402.697266	10538.311523
1401.658203	10863.413086
1400.619141	10834.681641
1399.580078	10868.506836
1398.540039	11003.332031
1397.500977	10871.188477
1396.460938	10876.133789
1395.420898	11051.731445
1394.380859	10712.993164
1393.339844	10528.162109
1392.298828	10386.643555
1391.257813	10461.328125
1390.216797	10151.805664
1389.175781	9967.242188
1388.133789	10231.571289
1387.091797	10203.041016
1386.049805	10071.360352
1385.007813	10273.137695
1383.964844	10503.606445
1382.922852	10568.545898
1381.879883	10683.794922
1380.835938	10878.083984
1379.792969	11074.686523
1378.749023	11453.269531
1377.706055	11402.975586
1376.661133	11723.861328
1375.617188	11855.479492
1374.573242	11793.162109
1373.528320	12082.653320
1372.483398	11754.737305
1371.438477	11685.300781
1370.392578	11462.833008
1369.347656	11570.425781
1368.301758	11278.746094
1367.255859	11438.912109
1366.208984	11235.794922
1365.163086	11042.318359
1364.116211	10906.247070
1363.069336	10755.904297
1362.022461	10703.514648
1360.974609	10646.371094
1359.927734	10567.772461
1358.879883	10255.370117
1357.832031	10379.658203
1356.783203	10341.708984
1355.735352	10301.389648
1354.686523	10537.640625
1353.637695	10504.446289
1352.588867	10709.574219
1351.539063	10616.791992
1350.490234	10900.417969
1349.440430	11193.450195
1348.390625	11810.186523
1347.339844	11983.874023
1346.290039	12247.931641
1345.239258	12745.077148
1344.188477	12947.006836
1343.137695	13517.531250
1342.085938	13742.993164
1341.034180	14360.662109
1339.982422	14737.984375
1338.930664	14758.658203
1337.878906	15368.593750
1336.826172	15322.607422
1335.773438	15412.020508
1334.720703	15375.540039
1333.667969	15388.930664
1332.614258	15250.404297
1331.561523	15031.249023
1330.507813	15020.973633
1329.453125	14621.675781
1328.399414	14402.788086
1327.344727	13894.714844
1326.290039	13929.724609
1325.235352	13730.077148
1324.180664	13518.665039
1323.125000	13331.031250
1322.070313	13126.895508
1321.014648	13164.393555
1319.958008	12886.980469
1318.902344	12666.494141
1317.845703	12363.267578
1316.789063	12289.682617
1315.732422	12100.211914
1314.675781	11802.023438
1313.618164	11657.661133
1312.560547	11652.842773
1311.502930	11123.296875
1310.445313	11035.881836
1309.386719	10724.050781
1308.329102	10469.041992
1307.270508	10551.856445
1306.210938	10188.376953
1305.152344	10108.328125
1304.092773	10066.075195
1303.033203	9717.083008
1301.973633	9766.936523
1300.914063	9750.725586
1299.853516	9541.150391
1298.792969	9345.809570
1297.732422	9244.836914
1296.671875	9304.160156
1295.611328	9224.443359
1294.549805	9300.234375
1293.488281	9326.533203
1292.426758	9270.407227
1291.364258	9035.385742
1290.302734	9045.246094
1289.240234	9144.523438
1288.177734	9119.065430
1287.114258	9001.880859
1286.051758	9268.074219
1284.988281	9012.184570
1283.924805	9181.882813
1282.861328	9147.039063
1281.796875	9431.771484
1280.732422	9523.746094
1279.667969	9592.194336
1278.603516	9672.353516
1277.539063	9797.084961
1276.473633	10029.736328
1275.408203	10025.267578
1274.342773	10239.000000
1273.277344	10192.264648
1272.210938	10356.619141
1271.145508	10281.740234
1270.079102	10260.808594
1269.011719	10125.041992
1267.945313	10054.942383
1266.877930	9956.758789
1265.810547	9736.818359
1264.743164	9671.527344
1263.674805	9550.072266
1262.607422	9461.439453
1261.539063	9361.141602
1260.470703	9335.758789
1259.401367	9060.082031
1258.333008	9018.401367
1257.263672	8834.100586
1256.194336	8939.765625
1255.125000	8956.567383
1254.054688	8756.037109
1252.985352	8873.331055
1251.915039	8717.283203
1250.843750	8799.503906
1249.773438	8753.273438
1248.702148	8877.467773
1247.630859	8917.591797
1246.559570	8726.696289
1245.488281	8750.502930
1244.416016	8699.664063
1243.343750	8700.146484
1242.271484	8817.196289
1241.199219	8659.154297
1240.125977	8650.321289
1239.053711	8664.791016
1237.980469	8763.110352
1236.906250	8714.667969
1235.833008	8691.858398
1234.758789	8701.648438
1233.684570	8667.211914
1232.610352	8639.771484
1231.536133	8775.189453
1230.460938	8622.135742
1229.385742	8708.665039
1228.310547	8632.413086
1227.235352	8737.497070
1226.159180	8668.241211
1225.083008	8680.333984
1224.006836	8611.118164
1222.930664	8599.992188
1221.853516	8686.392578
1220.777344	8556.860352
1219.700195	8749.994141
1218.622070	8611.220703
1217.544922	8565.303711
1216.466797	8616.823242
1215.388672	8552.372070
1214.310547	8629.374023
1213.232422	8775.881836
1212.153320	8454.194336
1211.074219	8656.284180
1209.995117	8693.815430
1208.916016	8659.533203
1207.835938	8650.736328
1206.755859	8722.967773
1205.675781	8549.828125
1204.595703	8661.387695
1203.514648	8571.621094
1202.434570	8622.987305
1201.353516	8600.330078
1200.271484	8610.049805
1199.190430	8571.222656
1198.108398	8389.125977
1197.026367	8426.609375
1195.944336	8390.154297
1194.862305	8399.905273
1193.779297	8395.796875
1192.696289	8310.888672
1191.613281	8258.330078
1190.530273	8067.338379
1189.446289	8178.656738
1188.362305	8209.196289
1187.278320	8242.027344
1186.194336	8060.422363
1185.109375	7989.539551
1184.024414	7944.038086
1182.939453	7993.024414
1181.854492	8041.988770
1180.768555	7874.437012
1179.683594	7980.970703
1178.597656	7778.969727
1177.510742	7738.171387
1176.424805	7842.362793
1175.337891	8040.835938
1174.250977	7896.497559
1173.164063	7802.813477
1172.077148	7720.665039
1170.989258	7882.212402
1169.901367	7577.155273
1168.813477	7897.204590
1167.724609	7789.833984
1166.636719	7806.532227
1165.547852	7986.253906
1164.458984	7860.565918
1163.369141	7886.416992
1162.280273	7827.350586
1161.190430	8016.087402
1160.100586	7952.429688
1159.010742	8028.687500
1157.919922	7937.540527
1156.829102	7791.416992
1155.738281	7883.700684
1154.647461	7808.680664
1153.555664	7894.046875
1152.464844	8045.794434
1151.373047	8085.275391
1150.280273	7966.776855
1149.188477	7935.303711
1148.095703	7945.033203
1147.002930	7915.864258
1145.910156	8204.646484
1144.817383	8093.106934
1143.723633	8185.099609
1142.629883	8277.051758
1141.536133	8144.998535
1140.441406	8150.093262
1139.347656	7917.610840
1138.252930	8046.080566
1137.158203	7836.553711
1136.062500	7987.812988
1134.967773	7979.238281
1133.872070	7870.263184
1132.776367	8019.133301
1131.679688	7816.678223
1130.583984	8118.282227
1129.487305	7988.849121
1128.390625	8114.768066
1127.292969	7932.975098
1126.196289	8024.672852
1125.098633	7986.487793
1124.000977	8066.746094
1122.903320	7905.610840
1121.804688	7985.850098
1120.706055	7968.187500
1119.607422	8050.652832
1118.508789	8001.132324
1117.409180	7899.319336
1116.310547	7963.551758
1115.210938	8025.482422
1114.110352	7964.642578
1113.010742	7912.918457
1111.910156	7968.001465
1110.809570	8032.145996
1109.708984	7928.205078
1108.607422	7942.376953
1107.506836	8054.154297
1106.405273	8031.978027
1105.303711	7857.783691
1104.201172	7933.207031
1103.098633	7797.665527
1101.996094	7784.632324
1100.893555	7771.604004
1099.791016	7792.579590
1098.687500	7731.965332
1097.583984	7771.063965
1096.480469	7787.493652
1095.376953	7631.803711
1094.272461	7573.538574
1093.167969	7682.808105
1092.063477	7527.240723
1090.958008	7475.822266
1089.853516	7657.428711
1088.748047	7497.443359
1087.642578	7613.390625
1086.536133	7684.072754
1085.430664	7449.597168
1084.324219	7689.760742
1083.217773	7387.608887
1082.110352	7677.371582
1081.003906	7479.230957
1079.896484	7479.856445
1078.789063	7484.995605
1077.680664	7605.225586
1076.573242	7562.952148
1075.464844	7511.673828
1074.356445	7597.988281
1073.247070	7582.799805
1072.138672	7328.663574
1071.029297	7412.705566
1069.919922	7618.388184
1068.809570	7582.930664
1067.700195	7482.170898
1066.589844	7435.498047
1065.479492	7485.651855
1064.368164	7664.080078
1063.257813	7536.384277
1062.146484	7566.232422
1061.035156	7611.812500
1059.922852	7495.453613
1058.811523	7559.014648
1057.699219	7440.469727
1056.586914	7571.435059
1055.473633	7628.194824
1054.361328	7673.697754
1053.248047	7624.851563
1052.134766	7546.835449
1051.021484	7533.956055
1049.907227	7738.791016
1048.792969	7535.139160
1047.678711	7553.676758
1046.564453	7603.606934
1045.449219	7561.573730
1044.333984	7788.594727
1043.218750	7786.884277
1042.103516	7706.739746
1040.987305	7729.692383
1039.871094	7611.514160
1038.754883	7715.098633
1037.638672	7890.285156
1036.521484	7747.523926
1035.404297	7806.247070
1034.287109	7885.082031
1033.169922	7809.525391
1032.051758	7848.065430
1030.933594	7837.394043
1029.815430	7904.972168
1028.697266	8057.452637
1027.578125	8057.913574
1026.458984	7848.368652
1025.339844	7994.057617
1024.220703	8003.462402
1023.100586	8077.608398
1021.980469	7993.239746
1020.860352	7987.015137
1019.740234	8070.037598
1018.619141	8074.950684
1017.498047	8106.622559
1016.376953	8218.547852
1015.255859	7991.587891
1014.133789	7960.852051
1013.011719	8132.894043
1011.889648	8082.089355
1010.767578	8147.121582
1009.644531	8085.201660
1008.521484	8045.570313
1007.398438	8032.664551
1006.274414	7930.754395
1005.151367	7942.350586
1004.027344	7987.304688
1002.902344	7745.372559
1001.778320	7974.880859
1000.653320	7673.041992
999.528320	7793.570801
998.403320	7818.508301
997.278320	7610.197266
996.152344	7719.554199
995.026367	7733.387695
993.900391	7616.244629
992.773438	7747.718750
991.646484	7777.067383
990.519531	7744.287598
989.392578	7868.990723
988.265625	7749.726074
987.137695	7716.972656
986.009766	7779.537598
984.881836	7921.846680
983.752930	7798.242676
982.624023	7696.841797
981.495117	7637.559570
980.366211	7719.995117
979.236328	7793.539063
978.106445	7791.809570
976.976563	7838.754395
975.846680	7825.954102
974.715820	7729.123047
973.585938	7760.571289
972.454102	7674.848633
971.323242	7763.753906
970.191406	7702.371582
969.060547	7764.721680
967.927734	7906.550293
966.795898	7915.833008
965.663086	7960.431152
964.530273	8088.877441
963.397461	8192.993164
962.264648	8418.396484
961.130859	8394.467773
959.997070	8608.699219
958.863281	8791.969727
957.729492	8664.377930
956.594727	8567.692383
955.459961	8530.534180
954.325195	8409.691406
953.189453	8374.785156
952.053711	8163.761230
950.917969	8062.889160
949.782227	7973.064453
948.646484	7801.872070
947.509766	7852.925293
946.373047	7741.213379
945.235352	7570.185059
944.098633	7471.774414
942.960938	7560.213867
941.823242	7391.536133
940.685547	7451.395020
939.546875	7555.152344
938.408203	7713.756836
937.269531	7676.909180
936.129883	7646.662109
934.991211	7638.370605
933.851563	7630.082520
932.711914	7672.243652
931.571289	7720.963379
930.431641	7541.657715
929.291016	7785.458496
928.149414	7796.865234
927.008789	7775.403320
925.867188	7648.812012
924.725586	7625.201660
923.583984	7546.865723
922.441406	7669.944336
921.299805	7510.660645
920.157227	7524.294434
919.013672	7537.921387
917.871094	7466.250488
916.727539	7486.442383
915.583984	7414.813477
914.439453	7244.869629
913.295898	7345.940430
912.151367	7368.322754
911.006836	7381.958496
909.861328	7384.669922
908.716797	7247.665527
907.571289	7429.373047
906.424805	7272.780273
905.279297	7338.776855
904.132813	7199.721680
902.986328	7313.676270
901.839844	7458.100586
900.692383	7408.474121
899.545898	7252.092773
898.398438	7324.537109
897.250000	7288.041016
896.102539	7325.600586
894.954102	7424.103516
893.805664	7183.000977
892.656250	7290.194824
891.507813	7155.838379
890.358398	7262.988770
889.208984	7206.987305
888.058594	7233.630859
886.908203	7205.918457
885.758789	7117.366699
884.607422	7050.582031
883.457031	7207.569824
882.305664	7175.541992
881.154297	7202.152832
880.002930	7220.067383
878.850586	7146.820801
877.698242	7143.040527
876.545898	7085.028320
875.393555	7029.210449
874.240234	7064.487793
873.086914	7160.448730
871.933594	7033.126465
870.780273	7142.051270
869.625977	7107.943848
868.471680	6974.220215
867.317383	7033.277832
866.162109	6903.959961
865.007813	7125.338867
863.852539	6987.400879
862.696289	7052.890625
861.541016	7178.913574
860.384766	6971.855957
859.228516	7009.196777
858.072266	7053.004883
856.915039	6995.224121
855.757813	6835.924316
854.600586	6864.619629
853.442383	6880.344238
852.285156	7023.445801
851.126953	7036.967773
849.968750	6979.265625
848.809570	7057.518066
847.650391	7012.778809
846.491211	7002.565430
845.332031	6804.771973
844.171875	6958.437988
843.012695	6976.259277
841.851563	6821.697754
840.691406	6955.866699
839.530273	6967.212891
838.369141	6961.328125
837.208008	6918.849121
836.046875	6900.063477
834.884766	6861.919922
833.722656	6825.944336
832.560547	6783.532227
831.397461	6814.248047
830.234375	7051.330078
829.071289	6862.740723
827.908203	6891.267578
826.744141	6874.665527
825.580078	6724.904297
824.416016	6781.356934
823.251953	6932.245117
822.086914	6855.547852
820.921875	6877.596191
819.756836	6908.215820
818.590820	6777.951172
817.425781	6881.488770
816.259766	6858.485840
815.092773	6884.792480
813.926758	6857.512207
812.759766	6907.373047
811.592773	6822.265137
810.424805	6908.516113
809.257813	6915.509277
808.089844	6714.866211
806.920898	6901.663574
805.752930	6651.903809
804.583984	6827.934082
803.415039	6907.646484
802.246094	6829.103027
801.076172	6855.337402
799.906250	6890.107910
798.736328	6762.477051
797.566406	6886.970703
796.395508	6667.563965
795.224609	6847.535645
794.053711	6916.420898
792.881836	6938.321289
791.710938	7015.687988
790.538086	7052.487305
789.366211	7259.889648
788.194336	7123.901855
787.021484	7075.378418
785.848633	7026.876465
784.674805	6893.163574
783.500977	6974.673828
782.327148	6973.083008
781.153320	6847.989258
779.979492	6991.189453
778.804688	7023.647949
777.629883	7000.766113
776.454102	6856.631836
775.279297	6897.604492
774.103516	6908.788086
772.927734	6909.336426
771.750977	6816.363281
770.575195	6833.931152
769.398438	6913.100586
768.220703	6900.900879
767.043945	6825.000488
765.866211	6972.053223
764.688477	6845.229004
763.510742	7000.696777
762.332031	6871.801270
761.153320	6963.558105
759.974609	7093.443359
758.794922	7013.376465
757.616211	7064.763184
756.436523	7114.006348
755.255859	7144.158691
754.076172	7333.160645
752.895508	7363.247559
751.714844	7412.375488
750.533203	7537.682129
749.352539	7808.952148
748.170898	8058.939941
746.988281	8310.927734
745.806641	8744.671875
744.624023	9446.733398
743.441406	10543.757813
742.258789	11936.146484
741.075195	13693.419922
739.891602	16250.476563
738.708008	18565.603516
737.523438	20733.982422
736.339844	23112.457031
735.155273	24759.628906
733.969727	25171.720703
732.785156	24809.447266
731.599609	23068.062500
730.414063	21264.220703
729.227539	18679.130859
728.041992	16383.957031
726.855469	14077.192383
725.667969	12338.152344
724.481445	10983.215820
723.293945	10062.653320
722.106445	9426.703125
720.918945	8769.999023
719.730469	8244.051758
718.541992	8088.590820
717.353516	7722.882324
716.164063	7550.789551
714.975586	7389.286621
713.786133	7332.943848
712.595703	6992.957520
711.406250	6949.334961
710.215820	6899.431152
709.025391	6843.250488
707.833984	6887.862305
706.642578	6737.261230
705.451172	6800.760742
704.259766	6792.903320
703.068359	6799.730469
701.875977	6663.964355
700.683594	6614.213867
699.490234	6675.570313
698.297852	6736.897949
697.104492	6791.912109
695.910156	6708.663574
694.716797	6906.050781
693.522461	6841.654785
692.328125	6877.754883
691.132813	7035.206055
689.938477	7079.612305
688.743164	7004.775879
687.547852	7143.267578
686.351563	6980.643066
685.155273	6922.601074
683.958984	6835.329590
682.762695	6977.909180
681.565430	6867.687988
680.368164	6763.782227
679.170898	6900.014648
677.973633	6652.126953
676.775391	6711.110352
675.577148	6803.446777
674.378906	6831.080078
673.179688	6783.627441
671.980469	6692.414063
670.781250	6705.460938
669.581055	6897.717773
668.381836	6814.873047
667.181641	6879.955078
665.980469	6738.843262
664.780273	6855.960938
663.579102	6893.927734
662.377930	7004.711914
661.175781	6926.115234
659.973633	7095.081543
658.771484	7078.886719
657.569336	7278.925293
656.367188	7289.716797
655.164063	7485.457031
653.960938	7477.495605
652.756836	7492.386230
651.552734	7567.493652
650.348633	7530.450195
649.144531	7586.831543
647.939453	7531.122070
646.735352	7772.131836
645.529297	7627.209473
644.324219	7698.030762
643.118164	7698.325684
641.912109	7723.493652
640.706055	7593.220703
639.499023	7815.231934
638.292969	7676.710938
637.084961	7792.980469
635.877930	7691.796387
634.669922	7894.947266
633.461914	7843.453613
632.253906	7866.468262
631.044922	7868.786133
629.836914	7879.375000
628.626953	8016.082031
627.417969	7842.656738
626.208008	7896.642090
624.998047	7927.874023
623.788086	7996.272949
622.577148	7690.837402
621.366211	7579.626953
620.155273	7596.451660
618.944336	7446.101563
617.732422	7425.808594
616.520508	7329.200195
615.308594	7280.070313
614.095703	7195.910156
612.882813	7029.333496
611.669922	6955.574219
610.457031	6958.084961
609.243164	6995.612793
608.029297	6843.651367
606.815430	6757.647461
605.600586	6646.980469
604.385742	6952.090332
603.170898	6771.471680
601.955078	6710.247559
600.740234	6790.958008
599.524414	6659.847656
598.307617	6781.645020
597.091797	6695.811035
595.875000	6720.971191
594.658203	6624.918945
593.440430	6752.770996
592.222656	6675.234375
591.004883	6749.641602
589.787109	6787.071777
588.568359	6684.957520
587.349609	6679.305664
586.130859	6706.470215
584.912109	6678.260254
583.692383	6764.860352
582.472656	6853.469238
581.251953	6876.468262
580.032227	6932.232910
578.811523	6967.490723
577.589844	6904.447754
576.369141	7019.532227
575.147461	6999.484863
573.925781	7114.492676
572.703125	7071.929199
571.481445	7027.339844
570.258789	7136.125488
569.035156	7165.134277
567.812500	7300.406250
566.588867	7515.304199
565.365234	7188.749512
564.140625	7350.471191
562.916992	7299.760742
561.692383	7291.942871
560.466797	7290.250977
559.242188	7223.264648
558.016602	7372.548828
556.791016	7128.134766
555.564453	7199.886719
554.337891	7275.682129
553.111328	7168.012207
551.884766	7152.085449
550.657227	7209.503418
549.429688	7348.361816
548.202148	7130.817871
546.974609	7294.058105
545.746094	7190.601563
544.517578	7174.689453
543.288086	7229.984863
542.058594	7382.879883
540.829102	7336.431641
539.599609	7468.900879
538.370117	7487.491211
537.139648	7359.771484
535.909180	7449.480469
534.677734	7457.906250
533.446289	7297.791992
532.214844	7231.135254
530.983398	7213.219727
529.750977	7097.913574
528.519531	7163.211914
527.286133	7019.575195
526.053711	7133.525391
524.820313	7073.079102
523.586914	7199.124023
522.353516	7045.479492
521.119141	7118.799805
519.884766	7153.603516
518.650391	7060.821777
517.415039	7113.842285
516.179688	7124.333984
514.944336	7003.293945
513.708984	6955.138184
