#Wave		#Intensity
2109.007813	2674.387695
2107.496094	2712.427734
2105.984375	2768.062256
2104.470703	2739.359375
2102.958984	2748.684326
2101.445313	2736.522949
2099.933594	2737.583740
2098.419922	2722.126465
2096.906250	2731.447266
2095.390625	2786.993896
2093.876953	2763.282471
2092.361328	2762.686279
2090.845703	2702.690430
2089.332031	2693.859375
2087.814453	2686.681396
2086.298828	2684.453369
2084.783203	2777.843506
2083.265625	2661.869873
2081.748047	2710.732422
2080.230469	2728.271240
2078.712891	2750.743896
2077.195313	2745.211670
2075.677734	2693.581055
2074.158203	2668.310303
2072.638672	2672.673584
2071.119141	2723.105713
2069.599609	2804.771484
2068.080078	2776.209229
2066.560547	2729.571777
2065.039063	2707.613770
2063.517578	2698.813965
2061.996094	2716.310303
2060.474609	2661.511230
2058.953125	2649.442139
2057.429688	2655.442383
2055.908203	2687.709473
2054.384766	2652.661621
2052.861328	2729.226563
2051.337891	2707.311035
2049.814453	2762.505615
2048.289063	2699.590088
2046.765625	2605.546387
2045.240234	2685.318115
2043.714844	2650.323242
2042.189453	2671.058594
2040.664063	2667.209961
2039.136719	2668.277100
2037.609375	2592.374756
2036.083984	2717.890869
2034.556641	2736.952637
2033.029297	2731.457275
2031.500000	2683.422363
2029.972656	2633.772217
2028.443359	2674.097412
2026.914063	2747.109131
2025.386719	2677.859131
2023.855469	2701.804199
2022.326172	2686.519775
2020.796875	2769.269043
2019.265625	2639.636230
2017.734375	2668.468262
2016.203125	2721.779053
2014.671875	2686.917725
2013.140625	2572.101318
2011.607422	2658.032471
2010.076172	2606.893555
2008.542969	2691.149658
2007.009766	2680.791748
2005.476563	2660.656494
2003.943359	2684.538574
2002.408203	2713.299561
2000.875000	2590.526611
1999.339844	2596.490234
1997.804688	2646.422607
1996.269531	2676.795166
1994.732422	2607.854248
1993.197266	2685.420410
1991.660156	2696.238770
1990.123047	2601.308350
1988.585938	2659.308350
1987.048828	2644.107178
1985.511719	2563.880371
1983.972656	2665.738281
1982.435547	2566.039795
1980.896484	2563.869385
1979.357422	2701.399170
1977.818359	2650.478760
1976.279297	2581.718750
1974.738281	2542.208984
1973.197266	2648.788818
1971.658203	2544.373779
1970.117188	2644.418457
1968.576172	2627.636475
1967.033203	2573.563721
1965.492188	2629.762939
1963.949219	2569.228760
1962.406250	2602.716064
1960.863281	2618.366211
1959.320313	2611.330566
1957.777344	2594.580566
1956.232422	2577.837402
1954.689453	2588.622559
1953.144531	2560.557617
1951.599609	2574.578369
1950.054688	2619.332520
1948.507813	2655.979980
1946.962891	2585.877686
1945.416016	2675.872314
1943.869141	2625.193359
1942.322266	2584.232910
1940.775391	2569.142578
1939.228516	2557.289795
1937.679688	2590.665283
1936.132813	2596.575439
1934.583984	2502.387451
1933.035156	2569.649414
1931.486328	2619.131348
1929.935547	2552.426270
1928.386719	2519.624023
1926.835938	2538.443115
1925.285156	2576.603027
1923.734375	2540.592041
1922.183594	2506.208252
1920.632813	2568.520752
1919.080078	2509.979980
1917.527344	2503.005859
1915.976563	2537.903564
1914.423828	2551.856201
1912.869141	2541.658203
1911.316406	2539.510986
1909.761719	2540.582520
1908.208984	2572.217529
1906.654297	2576.498291
1905.099609	2561.481445
1903.544922	2520.749023
1901.988281	2512.179199
1900.433594	2514.861816
1898.876953	2556.101318
1897.320313	2499.341553
1895.763672	2474.724121
1894.207031	2507.917969
1892.648438	2526.650635
1891.091797	2431.427002
1889.533203	2536.813965
1887.974609	2497.776367
1886.416016	2508.475342
1884.857422	2511.152100
1883.298828	2478.557129
1881.738281	2534.133545
1880.177734	2480.714355
1878.617188	2566.708252
1877.056641	2457.239990
1875.496094	2570.427979
1873.935547	2520.248291
1872.373047	2446.077393
1870.810547	2517.582764
1869.248047	2445.043701
1867.685547	2446.126953
1866.123047	2535.181152
1864.560547	2477.076172
1862.996094	2506.930176
1861.431641	2567.142334
1859.867188	2489.889648
1858.302734	2377.518066
1856.738281	2506.409912
1855.171875	2564.973877
1853.607422	2435.092529
1852.041016	2515.997070
1850.474609	2429.275635
1848.908203	2519.721436
1847.341797	2479.303467
1845.773438	2432.521973
1844.207031	2447.955811
1842.638672	2501.649170
1841.070313	2454.892334
1839.501953	2435.249023
1837.931641	2461.822754
1836.363281	2507.501953
1834.792969	2456.004883
1833.222656	2465.040527
1831.652344	2485.216797
1830.082031	2503.792725
1828.511719	2506.446777
1826.941406	2431.137939
1825.369141	2535.612061
1823.796875	2473.051758
1822.224609	2447.088623
1820.652344	2416.367188
1819.078125	2434.929688
1817.505859	2404.223633
1815.931641	2464.086914
1814.357422	2419.092041
1812.783203	2424.933350
1811.208984	2489.517090
1809.634766	2422.322021
1808.058594	2402.766113
1806.484375	2446.686279
1804.908203	2374.783203
1803.332031	2412.346436
1801.753906	2426.108154
1800.177734	2463.644287
1798.601563	2455.198975
1797.023438	2443.587646
1795.445313	2506.445801
1793.867188	2396.619141
1792.289063	2430.954102
1790.708984	2531.774902
1789.130859	2426.761230
1787.550781	2486.390625
1785.970703	2392.507080
1784.390625	2450.536133
1782.810547	2432.620117
1781.228516	2397.316650
1779.646484	2528.034180
1778.066406	2454.789063
1776.484375	2455.850830
1774.902344	2453.751953
1773.318359	2434.277588
1771.736328	2465.350098
1770.152344	2423.774902
1768.568359	2489.567139
1766.984375	2436.956055
1765.400391	2439.596924
1763.816406	2464.324219
1762.230469	2506.391602
1760.646484	2384.432617
1759.060547	2407.578857
1757.474609	2460.665527
1755.888672	2434.929443
1754.300781	2439.141846
1752.714844	2385.064697
1751.126953	2496.385986
1749.539063	2481.686279
1747.951172	2411.890625
1746.363281	2444.434814
1744.775391	2453.360107
1743.185547	2478.014893
1741.595703	2428.727539
1740.007813	2442.368164
1738.416016	2440.279297
1736.826172	2497.927734
1735.236328	2442.390625
1733.644531	2498.442627
1732.052734	2402.082275
1730.462891	2489.532471
1728.869141	2479.583740
1727.277344	2508.889404
1725.685547	2495.801025
1724.091797	2504.689209
1722.498047	2596.731445
1720.904297	2566.376953
1719.310547	2553.286865
1717.716797	2549.610596
1716.121094	2495.769287
1714.527344	2532.857666
1712.931641	2505.682129
1711.335938	2605.420410
1709.740234	2642.461426
1708.142578	2540.109619
1706.546875	2517.652100
1704.949219	2531.207275
1703.351563	2500.935303
1701.753906	2562.994141
1700.156250	2526.470459
1698.558594	2550.959961
1696.958984	2587.948730
1695.359375	2568.639893
1693.759766	2561.843506
1692.160156	2553.487061
1690.560547	2538.884277
1688.960938	2593.018311
1687.359375	2528.437744
1685.757813	2591.919189
1684.156250	2563.270508
1682.554688	2618.913574
1680.953125	2585.589600
1679.349609	2599.082031
1677.748047	2593.851563
1676.144531	2646.321533
1674.541016	2630.169434
1672.937500	2607.788818
1671.332031	2618.144531
1669.728516	2667.447998
1668.123047	2696.479248
1666.517578	2741.072510
1664.912109	2723.362549
1663.306641	2718.114258
1661.701172	2756.448242
1660.093750	2782.316650
1658.486328	2870.405029
1656.878906	2753.137207
1655.271484	2974.933838
1653.664063	2867.021973
1652.056641	2900.610840
1650.447266	3035.203369
1648.837891	2953.761230
1647.228516	3023.039551
1645.619141	2912.124512
1644.009766	3041.941162
1642.398438	3039.741943
1640.789063	3132.224365
1639.177734	3086.555908
1637.566406	3132.444092
1635.955078	3148.840576
1634.341797	3228.813721
1632.730469	3192.465332
1631.117188	3173.184326
1629.503906	3186.457764
1627.890625	3315.937988
1626.277344	3361.707520
1624.662109	3261.865967
1623.048828	3330.854736
1621.433594	3373.494873
1619.818359	3352.654297
1618.203125	3463.362305
1616.587891	3419.303223
1614.970703	3449.512207
1613.353516	3510.638672
1611.738281	3545.453613
1610.121094	3512.234619
1608.501953	3565.580322
1606.884766	3594.179443
1605.267578	3615.041748
1603.648438	3685.320801
1602.029297	3686.079102
1600.410156	3728.522217
1598.791016	3676.789063
1597.169922	3779.402100
1595.550781	3860.370117
1593.929688	3853.375977
1592.308594	3823.250977
1590.687500	3803.931641
1589.064453	3890.990723
1587.443359	3791.518799
1585.820313	3849.264893
1584.197266	3808.386963
1582.574219	3810.654053
1580.951172	3752.861816
1579.328125	3775.154541
1577.703125	3740.483154
1576.080078	3839.716553
1574.455078	3763.502686
1572.830078	3822.692139
1571.203125	3851.096191
1569.578125	3794.917480
1567.951172	3763.359375
1566.324219	3725.666504
1564.697266	3810.922607
1563.070313	3673.373291
1561.443359	3790.859619
1559.816406	3771.620117
1558.187500	3772.348145
1556.558594	3677.904297
1554.929688	3793.752930
1553.300781	3697.810059
1551.669922	3715.426270
1550.041016	3699.293213
1548.410156	3742.968506
1546.779297	3824.950928
1545.148438	3710.709717
1543.517578	3662.410156
1541.884766	3644.772217
1540.251953	3755.807129
1538.621094	3624.832275
1536.988281	3516.879395
1535.353516	3537.555176
1533.720703	3576.586914
1532.085938	3468.712891
1530.453125	3376.182617
1528.818359	3494.753662
1527.183594	3468.008301
1525.546875	3488.666260
1523.912109	3420.665283
1522.275391	3441.323975
1520.640625	3452.806885
1519.003906	3403.185791
1517.365234	3423.834229
1515.728516	3412.410400
1514.091797	3480.368164
1512.453125	3493.354980
1510.814453	3500.232666
1509.175781	3523.887451
1507.537109	3585.660889
1505.896484	3490.349365
1504.257813	3443.862793
1502.617188	3501.040039
1500.976563	3390.568848
1499.335938	3292.333008
1497.693359	3341.889160
1496.052734	3230.000000
1494.410156	3221.691162
1492.767578	3236.218994
1491.125000	3218.780518
1489.482422	3160.267578
1487.837891	3130.682617
1486.195313	3032.669922
1484.550781	3042.659668
1482.906250	3005.517334
1481.261719	3010.948242
1479.617188	3042.209717
1477.970703	2999.013672
1476.324219	3051.528564
1474.677734	3064.536865
1473.031250	2989.479492
1471.384766	2985.797852
1469.738281	3017.022461
1468.089844	2986.024658
1466.441406	3094.600342
1464.792969	3039.332275
1463.144531	3069.001221
1461.496094	2997.086426
1459.845703	3047.969971
1458.197266	3027.611328
1456.546875	3110.280762
1454.896484	3094.460693
1453.244141	2975.672363
1451.593750	3065.868408
1449.941406	3051.581299
1448.291016	3017.626465
1446.638672	3051.772217
1444.984375	2910.429932
1443.332031	3006.590576
1441.679688	2992.330322
1440.025391	2905.513672
1438.371094	2892.792480
1436.716797	2875.543213
1435.062500	2944.412842
1433.406250	2902.992920
1431.750000	2811.758301
1430.095703	2847.381592
1428.439453	2784.877197
1426.781250	2829.544922
1425.125000	2786.684814
1423.466797	2781.553955
1421.810547	2797.538574
1420.152344	2910.013916
1418.494141	2784.262695
1416.833984	2821.335205
1415.175781	2764.970215
1413.515625	2821.614258
1411.855469	2799.914307
1410.195313	2781.235107
1408.535156	2849.882080
1406.875000	2926.024414
1405.212891	2902.814697
1403.550781	2939.794922
1401.888672	2895.533203
1400.226563	2944.529053
1398.564453	2931.859131
1396.900391	2979.322021
1395.238281	2993.700928
1393.574219	2952.479492
1391.910156	2942.822266
1390.244141	2907.636719
1388.580078	2991.089111
1386.914063	2861.330811
1385.248047	2929.747314
1383.582031	2815.064453
1381.916016	2898.462891
1380.250000	2980.324707
1378.582031	3024.660889
1376.916016	2931.045898
1375.248047	2931.904053
1373.578125	2965.730713
1371.910156	2944.106201
1370.242188	2980.910645
1368.572266	2959.291748
1366.902344	2894.260498
1365.232422	2911.590576
1363.562500	2973.811523
1361.890625	2910.315430
1360.220703	2936.605469
1358.548828	2885.110107
1356.876953	2930.832764
1355.205078	2930.190186
1353.531250	2781.575684
1351.859375	2960.286377
1350.185547	2940.215088
1348.511719	2954.506836
1346.837891	3019.566162
1345.164063	3045.777832
1343.488281	3070.485107
1341.812500	3169.799805
1340.138672	3222.817139
1338.460938	3284.761230
1336.785156	3297.461914
1335.109375	3332.522705
1333.431641	3352.660400
1331.753906	3268.460449
1330.076172	3354.166016
1328.398438	3231.268555
1326.720703	3303.539307
1325.041016	3284.943115
1323.361328	3092.168945
1321.681641	3237.355225
1320.001953	3187.534668
1318.322266	3140.711182
1316.640625	3129.606934
1314.960938	3015.895508
1313.279297	3108.899170
1311.597656	3035.376465
1309.914063	3051.054688
1308.232422	2971.633301
1306.548828	2929.384033
1304.865234	2945.074219
1303.181641	2844.940430
1301.498047	2854.703857
1299.814453	2876.335938
1298.128906	2905.377686
1296.443359	2751.932861
1294.757813	2720.177734
1293.072266	2689.919189
1291.386719	2650.778320
1289.699219	2678.354248
1288.011719	2652.569824
1286.324219	2687.540283
1284.636719	2580.297119
1282.949219	2621.191162
1281.259766	2644.300049
1279.572266	2658.516846
1277.882813	2705.285156
1276.193359	2638.104492
1274.501953	2649.354004
1272.812500	2656.161377
1271.121094	2643.743652
1269.429688	2603.243896
1267.738281	2607.100342
1266.046875	2562.193359
1264.353516	2580.829590
1262.662109	2614.226807
1260.968750	2615.123047
1259.275391	2528.916504
1257.582031	2549.018311
1255.886719	2570.586914
1254.193359	2506.576660
1252.498047	2526.669434
1250.802734	2484.816895
1249.107422	2451.828857
1247.410156	2496.978027
1245.714844	2559.790771
1244.017578	2442.825928
1242.320313	2433.444092
1240.623047	2475.610596
1238.925781	2452.973633
1237.226563	2387.657227
1235.527344	2432.748535
1233.828125	2439.563477
1232.128906	2430.193359
1230.429688	2360.526855
1228.728516	2367.352539
1227.029297	2425.627686
1225.328125	2379.524170
1223.626953	2392.218018
1221.923828	2365.240234
1220.222656	2360.305908
1218.519531	2346.562744
1216.816406	2419.444092
1215.113281	2301.480957
1213.410156	2400.753418
1211.707031	2359.137451
1210.001953	2324.873535
1208.296875	2327.286621
1206.591797	2260.789551
1204.886719	2324.779541
1203.179688	2331.586670
1201.474609	2227.038574
1199.767578	2255.836426
1198.060547	2286.085693
1196.353516	2307.536377
1194.644531	2307.019287
1192.937500	2382.604980
1191.228516	2373.291748
1189.519531	2293.765137
1187.810547	2302.025879
1186.099609	2323.442627
1184.390625	2375.548828
1182.679688	2290.245850
1180.968750	2308.727539
1179.257813	2303.826416
1177.544922	2250.728760
1175.833984	2273.586914
1174.121094	2308.113770
1172.408203	2259.428955
1170.695313	2272.054199
1168.982422	2211.727539
1167.267578	2297.287109
1165.552734	2288.020752
1163.837891	2237.936035
1162.123047	2212.652832
1160.408203	2207.782959
1158.691406	2220.398193
1156.976563	2231.551270
1155.259766	2181.534424
1153.541016	2149.011475
1151.824219	2161.627686
1150.107422	2201.889160
1148.388672	2210.122559
1146.669922	2299.812744
1144.951172	2268.753174
1143.230469	2268.241211
1141.511719	2231.387207
1139.791016	2210.536621
1138.070313	2162.087891
1136.349609	2229.875977
1134.628906	2187.253662
1132.906250	2122.870117
1131.185547	2163.037842
1129.462891	2116.104980
1127.740234	2143.196289
1126.015625	2071.626221
1124.292969	2058.104004
1122.568359	2056.188232
1120.843750	2090.516357
1119.119141	2062.504395
1117.394531	2034.504761
1115.667969	2129.661377
1113.941406	2074.138916
1112.214844	2025.881836
1110.488281	2061.616699
1108.761719	2027.858276
1107.033203	1999.903320
1105.306641	1993.662598
1103.578125	2013.460571
1101.849609	1921.897827
1100.119141	2000.980347
1098.390625	1986.071289
1096.660156	1982.729980
1094.929688	2006.841431
1093.199219	1997.718506
1091.468750	1985.711304
1089.736328	1956.383423
1088.003906	1948.721069
1086.273438	1936.732544
1084.539063	1878.578491
1082.806641	1914.213867
1081.074219	1942.621826
1079.339844	1898.923950
1077.605469	1914.348511
1075.871094	1912.471313
1074.134766	1919.239990
1072.400391	1907.278442
1070.664063	1963.012085
1068.927734	1922.247803
1067.191406	1897.337036
1065.455078	1955.912842
1063.716797	2005.828125
1061.978516	1904.670410
1060.240234	1905.674072
1058.501953	1895.173584
1056.763672	1940.743774
1055.023438	1858.376709
1053.283203	1872.321533
1051.542969	1923.611572
1049.802734	1834.122925
1048.062500	1855.242798
1046.320313	1867.739258
1044.578125	1887.406250
1042.835938	1871.189941
1041.093750	1880.804199
1039.351563	1858.859253
1037.607422	1889.981323
1035.863281	1889.548584
1034.119141	1934.982178
1032.375000	1854.291382
1030.628906	1876.789185
1028.884766	1867.765137
1027.138672	1903.137207
1025.392578	1954.241455
1023.646484	1935.185669
1021.898438	1871.776855
1020.152344	1925.713867
1018.404297	1941.005981
1016.656250	1907.669678
1014.906250	1854.332520
1013.158203	1852.477417
1011.408203	1860.626221
1009.658203	1868.771240
1007.908203	1809.777588
1006.158203	1880.765015
1004.406250	1867.483032
1002.656250	1832.795898
1000.904297	1838.082642
999.150391	1886.169556
997.398438	1860.059937
995.646484	1868.188477
993.892578	1844.946167
992.138672	1847.372314
990.384766	1866.898438
988.628906	1876.442017
986.875000	1866.038452
985.119141	1854.215454
983.363281	1920.706787
981.607422	1859.054688
979.849609	1879.973145
978.093750	1849.660522
976.335938	1850.656250
974.578125	1956.891235
972.820313	1909.519165
971.060547	1877.805420
969.300781	1854.633057
967.542969	1926.667969
965.781250	1914.858765
964.021484	1907.315430
962.261719	1885.576782
960.500000	1916.370728
958.738281	1958.503906
956.976563	1884.269409
955.214844	1944.831299
953.451172	1913.180542
951.687500	1861.693726
949.923828	1871.185791
948.160156	1863.666504
946.396484	1793.806519
944.630859	1848.637695
942.865234	1877.950928
941.099609	1823.710693
939.333984	1870.002808
937.568359	1868.154175
935.800781	1839.422241
934.033203	1805.045044
932.265625	1813.112183
930.498047	1787.240479
928.730469	1793.893921
926.960938	1794.890991
925.191406	1771.866821
923.421875	1751.678467
921.652344	1837.422974
919.880859	1700.033447
918.109375	1764.574951
916.337891	1805.093506
914.566406	1748.233887
912.794922	1742.184814
911.021484	1733.317749
909.248047	1721.634521
907.474609	1712.776001
905.701172	1695.465210
903.927734	1697.888794
902.152344	1760.885498
900.376953	1736.533203
898.601563	1723.456421
896.826172	1751.209595
895.050781	1745.172241
893.273438	1772.907104
891.496094	1713.410889
889.718750	1752.391113
887.939453	1774.479980
886.162109	1744.545410
884.382813	1723.057251
882.603516	1799.935913
880.824219	1713.824829
879.044922	1723.256104
877.263672	1715.833374
875.482422	1687.357056
873.701172	1671.525024
871.919922	1748.307251
870.138672	1701.606323
868.355469	1698.403809
866.572266	1690.996338
864.789063	1700.413940
863.005859	1691.607544
861.220703	1694.014404
859.435547	1700.622559
857.650391	1682.018188
855.865234	1733.431641
854.080078	1668.632568
852.292969	1700.431396
850.505859	1655.258911
848.718750	1666.062500
846.931641	1671.266602
845.144531	1704.432617
843.355469	1643.923950
841.566406	1615.587524
839.777344	1661.317993
837.988281	1679.088501
836.197266	1622.831543
834.408203	1611.281128
832.617188	1630.446411
830.824219	1606.338745
829.033203	1639.448608
827.240234	1680.912476
825.449219	1647.047241
823.656250	1689.883789
821.861328	1626.758667
820.068359	1682.122314
818.273438	1610.668457
816.478516	1633.970947
814.683594	1602.948730
812.888672	1597.002808
811.091797	1621.683716
809.296875	1565.635498
807.500000	1612.573364
805.701172	1631.668579
803.904297	1600.689697
802.105469	1586.409546
800.308594	1626.347656
798.509766	1638.472412
796.708984	1617.246216
794.910156	1584.917236
793.109375	1581.766724
791.308594	1603.608887
789.507813	1571.305420
787.707031	1622.282227
785.904297	1623.287598
784.101563	1588.227783
782.298828	1605.881592
780.496094	1588.865845
778.693359	1627.302734
776.888672	1599.203369
775.083984	1571.116943
773.279297	1567.976318
771.474609	1582.839355
769.667969	1593.541992
767.861328	1602.855103
766.054688	1590.022461
764.248047	1615.933838
762.441406	1527.029053
760.632813	1595.811157
758.824219	1618.937378
757.015625	1574.324707
755.207031	1611.263428
753.398438	1601.212036
751.587891	1603.596191
749.777344	1623.930664
747.966797	1688.433594
746.154297	1730.822021
744.343750	1800.788452
742.531250	1844.509644
740.718750	1981.999634
738.906250	2211.813232
737.091797	2376.723145
735.277344	2678.005127
733.464844	2824.812988
731.648438	2763.528809
729.833984	2604.484619
728.019531	2373.912598
726.203125	2153.085938
724.386719	1935.116455
722.568359	1853.474121
720.751953	1759.489258
718.933594	1732.940796
717.115234	1654.153931
715.296875	1689.504150
713.478516	1647.872559
711.658203	1591.146118
709.839844	1605.879883
708.019531	1595.885376
706.197266	1543.330322
704.376953	1573.164795
702.554688	1582.398560
700.734375	1546.348877
698.910156	1529.520752
697.087891	1522.300659
695.265625	1516.454956
693.441406	1557.218872
691.617188	1533.551270
689.792969	1623.616455
687.966797	1531.453369
686.140625	1550.262695
684.316406	1567.693604
682.490234	1527.624878
680.662109	1557.369385
678.835938	1511.849121
677.007813	1512.857788
675.179688	1546.686768
673.351563	1587.335571
671.521484	1500.844360
669.693359	1540.117920
667.863281	1554.780396
666.033203	1546.215210
664.201172	1554.041016
662.371094	1608.282104
660.539063	1554.666870
658.707031	1561.120117
656.875000	1592.127441
655.041016	1587.656616
653.208984	1641.824463
651.375000	1559.634766
649.541016	1623.324219
647.705078	1592.958984
645.871094	1608.927856
644.035156	1624.889038
642.199219	1591.821411
640.363281	1600.971924
638.525391	1586.980103
636.689453	1533.533936
634.851563	1614.792480
633.013672	1579.045898
631.173828	1599.065796
629.335938	1624.513916
627.496094	1564.326172
625.656250	1589.770142
623.816406	1592.108032
621.974609	1620.249268
620.132813	1541.110107
618.292969	1580.109741
616.449219	1539.018066
614.607422	1527.796387
612.763672	1460.962891
610.921875	1474.176270
609.078125	1529.415039
607.232422	1481.606201
605.388672	1513.777832
603.542969	1472.769775
601.697266	1480.545776
599.851563	1500.506104
598.005859	1467.653809
596.158203	1498.436279
594.310547	1512.964600
592.462891	1470.661743
590.615234	1493.305298
588.765625	1399.639404
586.916016	1412.824951
585.066406	1420.597534
583.216797	1409.447510
581.367188	1449.641357
579.515625	1439.840088
577.664063	1411.138306
575.812500	1478.303589
573.960938	1428.010498
572.107422	1496.488770
570.253906	1409.789917
568.400391	1435.079468
566.546875	1432.039551
564.693359	1442.482178
562.837891	1443.485107
560.982422	1420.233032
559.126953	1430.670532
557.269531	1427.634888
555.414063	1451.530518
553.556641	1391.951416
551.699219	1446.798706
549.841797	1387.249023
547.982422	1365.393799
546.123047	1367.756958
544.263672	1387.598389
542.404297	1437.003662
540.544922	1392.310181
538.683594	1421.536377
536.822266	1433.285889
534.960938	1430.256958
533.099609	1452.739624
531.236328	1430.914795
529.373047	1474.858276
527.509766	1525.489136
525.646484	1566.706055
523.783203	1857.336060
521.917969	2537.975098
520.052734	3035.994385
518.187500	2602.423584
516.320313	1969.437134
514.455078	1658.217285
512.587891	1538.639282
510.720703	1457.943359
508.853516	1412.086304
506.984375	1410.409912
505.115234	1361.910278
503.246094	1365.596680
501.376953	1414.745605
499.507813	1410.396118
497.636719	1376.644653
495.765625	1349.590332
493.894531	1351.938843
492.021484	1372.984375
490.150391	1347.285400
488.277344	1403.030396
486.404297	1337.297485
484.531250	1390.349487
482.656250	1419.364136
480.781250	1343.004883
478.906250	1393.350464
477.031250	1379.686279
475.156250	1419.337036
473.279297	1395.013916
471.402344	1357.381592
469.525391	1342.406982
467.648438	1348.742554
465.769531	1251.247925
463.890625	1405.320313
462.011719	1335.798828
460.132813	1339.469116
458.251953	1271.326294
456.371094	1308.248169
454.490234	1307.934692
452.609375	1283.701294
450.728516	1290.036499
448.845703	1326.918213
446.962891	1301.369507
445.080078	1279.815918
443.197266	1310.036865
441.312500	1337.589355
439.427734	1278.895874
437.542969	1229.514893
435.658203	1278.282837
433.771484	1299.187744
431.886719	1309.479370
430.000000      1295.914917
428.111328	1312.826050
426.224609	1311.186890
424.335938	1306.900391
422.447266	1262.901855
420.558594	1300.979980
418.669922	1308.607178
416.779297	1285.805176
414.888672	1265.659058
412.998047	1290.477783
411.107422	1354.941284
409.214844	1259.463013
407.324219	1272.373779
405.431641	1276.031738
403.537109	1247.992676
401.644531	1280.701416
399.750000	1255.314575
