#Wave		#Intensity
1585.210938	5762.068848
1584.209961	5647.177246
1583.208984	5638.516113
1582.208008	5931.947754
1581.206055	5726.039063
1580.204102	5867.100586
1579.202148	5820.974121
1578.200195	5779.855957
1577.198242	5673.909180
1576.195313	5692.682129
1575.192383	5726.404785
1574.189453	5824.917969
1573.186523	5751.444336
1572.182617	5772.676270
1571.178711	5724.152832
1570.174805	5725.458008
1569.170898	5721.782227
1568.166992	5832.619141
1567.162109	5858.789063
1566.158203	5748.088379
1565.153320	5682.214355
1564.147461	5723.321777
1563.142578	5647.532715
1562.136719	5619.014160
1561.130859	5754.567871
1560.125000	5696.215332
1559.119141	5687.581543
1558.113281	5716.214844
1557.106445	5732.416992
1556.099609	5629.418945
1555.092773	5658.045410
1554.084961	5840.555176
1553.078125	5663.147949
1552.070313	5865.429199
1551.062500	5787.315430
1550.054688	5701.792969
1549.045898	5794.837402
1548.038086	5689.515625
1547.029297	5755.259277
1546.020508	5679.726074
1545.011719	5641.386719
1544.001953	5709.575684
1542.992188	5703.440430
1541.982422	5749.304199
1540.972656	5723.358887
1539.962891	5779.098633
1538.952148	5730.887207
1537.942383	5749.492188
1536.931641	5693.885742
1535.919922	5803.989258
1534.909180	5822.566895
1533.897461	5771.923340
1532.886719	5704.000488
1531.874023	5705.290039
1530.862305	5760.927734
1529.850586	5675.759277
1528.837891	5669.645508
1527.825195	5782.038574
1526.812500	5694.449707
1525.799805	5784.580078
1524.786133	5679.754883
1523.772461	5589.773926
1522.758789	5719.330078
1521.745117	5686.090820
1520.731445	5697.239746
1519.716797	5644.299805
1518.702148	5840.270996
1517.687500	5673.991211
1516.672852	5781.198242
1515.657227	5711.044922
1514.642578	5764.030762
1513.626953	5794.838867
1512.610352	5702.574707
1511.594727	5659.562500
1510.579102	5732.195313
1509.562500	5578.509277
1508.545898	5705.229492
1507.529297	5563.905273
1506.511719	5663.536133
1505.494141	5586.176758
1504.477539	5717.703613
1503.458984	5655.104004
1502.441406	5641.652344
1501.423828	5611.016602
1500.405273	5747.338379
1499.386719	5704.419922
1498.368164	5578.081055
1497.348633	5706.963379
1496.330078	5686.156738
1495.310547	5670.263184
1494.291016	5585.719727
1493.271484	5702.234863
1492.250977	5723.112305
1491.231445	5638.609375
1490.210938	5642.340820
1489.190430	5670.565430
1488.168945	5708.573730
1487.148438	5675.560547
1486.126953	5547.089844
1485.105469	5788.238281
1484.083984	5679.372559
1483.061523	5707.552734
1482.040039	5701.477539
1481.017578	5847.021484
1479.995117	5694.223633
1478.971680	5751.708984
1477.949219	5730.965332
1476.925781	5646.701172
1475.902344	5884.934082
1474.878906	5891.041016
1473.855469	5887.377441
1472.831055	5888.597656
1471.806641	5806.827637
1470.782227	5761.696777
1469.757813	5780.020508
1468.733398	5783.700195
1467.708008	5806.888672
1466.682617	5898.340820
1465.657227	5872.738770
1464.631836	5774.027344
1463.605469	5897.106934
1462.579102	5776.503906
1461.552734	5955.555176
1460.526367	5951.883789
1459.500000	6069.953613
1458.472656	6122.248535
1457.445313	6116.109863
1456.417969	5995.609375
1455.390625	5880.024414
1454.362305	6036.901367
1453.334961	6052.670410
1452.306641	6053.844727
1451.277344	6181.417969
1450.249023	6051.331055
1449.219727	5955.313965
1448.191406	5861.766113
1447.162109	5994.128906
1446.131836	6109.439453
1445.102539	6028.055176
1444.072266	5978.258301
1443.041992	5957.602539
1442.011719	5934.528809
1440.981445	6120.075684
1439.950195	5982.992188
1438.918945	6027.817871
1437.887695	6150.199707
1436.856445	6042.278809
1435.825195	5946.518066
1434.792969	6054.303223
1433.760742	5951.312500
1432.728516	5962.183594
1431.696289	5936.731934
1430.663086	5971.807617
1429.629883	5985.086914
1428.596680	5913.671875
1427.563477	5752.776855
1426.530273	5746.743164
1425.496094	5714.111328
1424.461914	5717.757813
1423.427734	5697.230957
1422.393555	5749.211914
1421.358398	5748.015625
1420.323242	5584.971191
1419.288086	5624.866211
1418.252930	5502.963379
1417.217773	5525.959473
1416.181641	5701.004395
1415.145508	5810.821289
1414.109375	5696.217773
1413.073242	5762.571289
1412.036133	5780.664551
1411.000000	5675.782227
1409.962891	5763.792969
1408.924805	5695.108887
1407.887695	5563.803223
1406.849609	5752.963867
1405.812500	5708.410156
1404.773438	5726.485840
1403.735352	5657.879395
1402.697266	5851.675781
1401.658203	5783.070801
1400.619141	5736.149414
1399.580078	5621.890625
1398.540039	5757.809082
1397.500977	5670.042969
1396.460938	5808.297852
1395.420898	5775.839844
1394.380859	5889.983398
1393.339844	5636.482910
1392.298828	5661.729980
1391.257813	5783.029785
1390.216797	5745.806641
1389.175781	5694.195313
1388.133789	5753.008789
1387.091797	5574.238770
1386.049805	5721.818359
1385.007813	5749.406738
1383.964844	5757.798828
1382.922852	5806.945801
1381.879883	5729.026367
1380.835938	5792.537598
1379.792969	5887.170898
1378.749023	5766.162109
1377.706055	5779.327637
1376.661133	5768.541992
1375.617188	5755.366211
1374.573242	5943.255859
1373.528320	5760.139648
1372.483398	5617.773926
1371.438477	5676.401367
1370.392578	5792.401855
1369.347656	5774.453125
1368.301758	5696.746582
1367.255859	5705.115723
1366.208984	5775.609863
1365.163086	5623.889648
1364.116211	5658.541504
1363.069336	5631.088379
1362.022461	5663.336426
1360.974609	5585.764648
1359.927734	5680.058594
1358.879883	5523.773926
1357.832031	5727.777344
1356.783203	5695.572266
1355.735352	5587.073242
1354.686523	5659.809570
1353.637695	5739.666016
1352.588867	5721.781738
1351.539063	5722.965820
1350.490234	5778.936523
1349.440430	5851.554688
1348.390625	5990.812012
1347.339844	6010.981934
1346.290039	5916.897949
1345.239258	6139.338867
1344.188477	6076.195313
1343.137695	6079.678223
1342.085938	6197.307617
1341.034180	6157.965820
1339.982422	6387.252441
1338.930664	6262.329102
1337.878906	6280.023438
1336.826172	6250.198242
1335.773438	6379.517090
1334.720703	6337.809570
1333.667969	6345.975098
1332.614258	6375.499512
1331.561523	6367.041504
1330.507813	6382.312500
1329.453125	6395.204102
1328.399414	6265.793945
1327.344727	6247.879395
1326.290039	6379.320801
1325.235352	6292.655762
1324.180664	6326.877441
1323.125000	6271.057617
1322.070313	6281.582031
1321.014648	6105.020020
1319.958008	6136.882813
1318.902344	6149.794922
1317.845703	6065.668945
1316.789063	5950.818359
1315.732422	5857.306641
1314.675781	5808.771484
1313.618164	5980.166992
1312.560547	5898.527344
1311.502930	5833.467285
1310.445313	5810.970703
1309.386719	5864.087891
1308.329102	5855.766113
1307.270508	5755.343262
1306.210938	5801.354004
1305.152344	5854.426270
1304.092773	5791.828613
1303.033203	5847.239746
1301.973633	5930.937012
1300.914063	5832.980957
1299.853516	5817.602051
1298.792969	5797.513672
1297.732422	5817.505859
1296.671875	5870.481934
1295.611328	5784.420898
1294.549805	5820.891113
1293.488281	5708.969238
1292.426758	5561.773438
1291.364258	5741.872070
1290.302734	5507.644043
1289.240234	5628.847168
1288.177734	5486.496582
1287.114258	5567.664551
1286.051758	5446.551270
1284.988281	5485.371094
1283.924805	5552.382813
1282.861328	5454.850098
1281.796875	5446.647949
1280.732422	5490.131836
1279.667969	5528.899414
1278.603516	5680.364746
1277.539063	5416.217285
1276.473633	5473.752441
1275.408203	5601.665039
1274.342773	5321.276855
1273.277344	5465.586914
1272.210938	5546.513672
1271.145508	5507.823730
1270.079102	5539.477051
1269.011719	5442.209961
1267.945313	5443.400391
1266.877930	5414.134277
1265.810547	5448.121094
1264.743164	5479.751465
1263.674805	5406.010742
1262.607422	5348.686035
1261.539063	5450.524902
1260.470703	5393.214355
1259.401367	5385.052734
1258.333008	5512.544434
1257.263672	5438.887695
1256.194336	5412.018066
1255.125000	5546.433594
1254.054688	5372.332520
1252.985352	5448.290527
1251.915039	5528.887695
1250.843750	5539.390137
1249.773438	5489.182617
1248.702148	5546.375000
1247.630859	5395.831543
1246.559570	5392.351563
1245.488281	5377.208496
1244.416016	5595.306641
1243.343750	5535.821289
1242.271484	5401.756836
1241.199219	5552.114258
1240.125977	5275.950195
1239.053711	5475.197266
1237.980469	5436.762207
1236.906250	5477.525391
1235.833008	5506.628906
1234.758789	5545.030762
1233.684570	5415.843750
1232.610352	5489.151367
1231.536133	5485.656250
1230.460938	5405.407227
1229.385742	5485.645020
1228.310547	5477.501953
1227.235352	5539.094238
1226.159180	5475.167480
1225.083008	5383.386719
1224.006836	5345.072266
1222.930664	5420.573242
1221.853516	5451.924316
1220.777344	5316.117676
1219.700195	5421.747070
1218.622070	5471.640625
1217.544922	5391.594238
1216.466797	5506.416992
1215.388672	5475.094727
1214.310547	5415.963867
1213.232422	5486.665039
1212.153320	5462.318359
1211.074219	5479.687500
1209.995117	5446.085938
1208.916016	5435.658203
1207.835938	5487.752930
1206.755859	5537.510254
1205.675781	5446.060059
1204.595703	5377.789063
1203.514648	5415.968750
1202.434570	5326.915039
1201.353516	5404.401855
1200.271484	5308.451660
1199.190430	5406.712402
1198.108398	5299.246582
1197.026367	5404.397949
1195.944336	5382.450195
1194.862305	5261.199707
1193.779297	5412.471680
1192.696289	5330.511719
1191.613281	5343.218262
1190.530273	5346.688477
1189.446289	5343.235352
1188.362305	5374.382324
1187.278320	5345.556641
1186.194336	5402.050781
1185.109375	5329.433105
1184.024414	5372.078125
1182.939453	5347.883789
1181.854492	5319.092773
1180.768555	5262.675781
1179.683594	5319.111816
1178.597656	5230.488281
1177.510742	5383.576172
1176.424805	5306.481445
1175.337891	5291.537109
1174.250977	5405.409180
1173.164063	5335.257324
1172.077148	5272.032227
1170.989258	5289.288574
1169.901367	5226.100098
1168.813477	5328.372559
1167.724609	5175.610840
1166.636719	5280.146484
1165.547852	5207.827148
1164.458984	5179.157715
1163.369141	5228.538086
1162.280273	5215.938965
1161.190430	5336.410645
1160.100586	5303.148926
1159.010742	5272.194336
1157.919922	5284.815430
1156.829102	5345.567871
1155.738281	5291.705078
1154.647461	5304.312012
1153.555664	5190.919922
1152.464844	5272.250977
1151.373047	5323.779297
1150.280273	5194.430176
1149.188477	5344.371094
1148.095703	5226.513672
1147.002930	5248.263672
1145.910156	5286.015625
1144.817383	5287.161133
1143.723633	5320.314453
1142.629883	5371.740234
1141.536133	5299.733887
1140.441406	5289.449219
1139.347656	5368.259277
1138.252930	5319.137695
1137.158203	5363.655273
1136.062500	5415.001953
1134.967773	5470.890625
1133.872070	5376.149902
1132.776367	5404.645020
1131.679688	5501.554688
1130.583984	5459.316895
1129.487305	5423.936035
1128.390625	5472.909668
1127.292969	5542.371582
1126.196289	5595.854004
1125.098633	5526.303223
1124.000977	5447.672363
1122.903320	5517.078125
1121.804688	5588.729492
1120.706055	5489.650879
1119.607422	5397.441406
1118.508789	5487.270996
1117.409180	5383.728516
1116.310547	5309.792480
1115.210938	5410.948242
1114.110352	5418.866211
1113.010742	5333.606934
1111.910156	5207.487793
1110.809570	5385.808105
1109.708984	5325.591797
1108.607422	5335.787598
1107.506836	5359.599121
1106.405273	5263.113281
1105.303711	5298.274414
1104.201172	5306.197266
1103.098633	5329.992676
1101.996094	5256.270996
1100.893555	5377.550781
1099.791016	5353.715332
1098.687500	5395.606445
1097.583984	5364.979492
1096.480469	5522.370605
1095.376953	5369.437988
1094.272461	5341.099609
1093.167969	5358.045410
1092.063477	5494.930664
1090.958008	5326.297363
1089.853516	5481.226074
1088.748047	5502.648438
1087.642578	5354.472168
1086.536133	5473.121582
1085.430664	5514.872070
1084.324219	5457.176758
1083.217773	5598.316406
1082.110352	5662.597656
1081.003906	5487.479004
1079.896484	5671.415527
1078.789063	5426.395996
1077.680664	5547.075195
1076.573242	5581.964355
1075.464844	5558.187500
1074.356445	5604.333984
1073.247070	5666.243164
1072.138672	5457.611328
1071.029297	5643.482910
1069.919922	5421.426270
1068.809570	5517.111328
1067.700195	5475.363281
1066.589844	5532.712891
1065.479492	5452.706055
1064.368164	5534.793945
1063.257813	5675.354004
1062.146484	5550.370117
1061.035156	5571.648438
1059.922852	5442.243652
1058.811523	5465.783691
1057.699219	5576.980469
1056.586914	5360.009766
1055.473633	5525.104980
1054.361328	5481.212402
1053.248047	5435.092773
1052.134766	5490.036621
1051.021484	5488.832520
1049.907227	5424.784668
1048.792969	5524.571777
1047.678711	5388.752930
1046.564453	5358.412109
1045.449219	5442.449707
1044.333984	5414.351074
1043.218750	5437.818359
1042.103516	5530.745605
1040.987305	5388.379883
1039.871094	5485.755859
1038.754883	5536.059082
1037.638672	5499.018066
1036.521484	5538.103027
1035.404297	5422.745605
1034.287109	5481.966797
1033.169922	5532.212891
1032.051758	5609.275391
1030.933594	5462.697266
1029.815430	5541.975586
1028.697266	5469.233398
1027.578125	5564.116699
1026.458984	5489.166504
1025.339844	5463.387695
1024.220703	5442.086426
1023.100586	5588.240234
1021.980469	5372.725098
1020.860352	5362.614258
1019.740234	5508.687500
1018.619141	5500.781250
1017.498047	5553.092285
1016.376953	5451.532227
1015.255859	5443.642090
1014.133789	5384.495605
1013.011719	5434.555664
1011.889648	5440.039551
1010.767578	5369.794922
1009.644531	5286.221191
1008.521484	5276.148926
1007.398438	5490.879395
1006.274414	5360.602539
1005.151367	5341.620117
1004.027344	5369.354980
1002.902344	5372.615723
1001.778320	5442.572754
1000.653320	5412.473145
999.528320	5464.610840
998.403320	5383.417480
997.278320	5453.308105
996.152344	5569.804688
995.026367	5519.725098
993.900391	5427.490234
992.773438	5412.972168
991.646484	5309.706543
990.519531	5366.208008
989.392578	5679.956055
988.265625	5499.090332
987.137695	5571.028809
986.009766	5330.423828
984.881836	5493.218750
983.752930	5571.755859
982.624023	5504.072754
981.495117	5620.216309
980.366211	5494.989258
979.236328	5633.216797
978.106445	5609.837402
976.976563	5462.569824
975.846680	5408.269531
974.715820	5365.050781
973.585938	5405.868164
972.454102	5528.455078
971.323242	5540.486816
970.191406	5472.970215
969.060547	5319.331543
967.927734	5519.125488
966.795898	5528.938965
965.663086	5450.444824
964.530273	5283.703125
963.397461	5485.532227
962.264648	5583.585449
961.130859	5602.193359
959.997070	5532.588379
958.863281	5551.198730
957.729492	5583.024414
956.594727	5449.563477
955.459961	5545.287598
954.325195	5634.360840
953.189453	5558.232422
952.053711	5512.960449
950.917969	5417.081543
949.782227	5376.261719
948.646484	5606.083008
947.509766	5508.046387
946.373047	5401.255859
945.235352	5424.236816
944.098633	5315.313477
942.960938	5470.166504
941.823242	5451.367676
940.685547	5302.968262
939.546875	5367.672363
938.408203	5348.907227
937.269531	5391.618164
936.129883	5416.751465
934.991211	5404.569824
933.851563	5405.555664
932.711914	5450.407227
931.571289	5322.004883
930.431641	5458.932129
929.291016	5383.188477
928.149414	5263.650879
927.008789	5361.062988
925.867188	5344.530762
924.725586	5428.740723
923.583984	5390.305664
922.441406	5362.832031
921.299805	5315.674805
920.157227	5307.920410
919.013672	5413.916016
917.871094	5272.738770
916.727539	5324.032227
915.583984	5333.769043
914.439453	5256.082031
913.295898	5329.193359
912.151367	5269.017090
911.006836	5237.259277
909.861328	5362.729004
908.716797	5274.205078
907.571289	5216.275391
906.424805	5356.938477
905.279297	5292.470703
904.132813	5319.636719
902.986328	5348.970703
901.839844	5319.428711
900.692383	5457.728516
899.545898	5264.740723
898.398438	5562.029297
897.250000	5482.366699
896.102539	5359.186523
894.954102	5482.080078
893.805664	5517.851074
892.656250	5412.153809
891.507813	5506.666992
890.358398	5488.026855
889.208984	5460.695801
888.058594	5637.752930
886.908203	5371.289063
885.758789	5457.010254
884.607422	5344.971191
883.457031	5437.175293
882.305664	5299.128906
881.154297	5354.389160
880.002930	5337.987305
878.850586	5289.038086
877.698242	5493.979004
876.545898	5338.718750
875.393555	5367.878906
874.240234	5234.399414
873.086914	5391.473145
871.933594	5299.227539
870.780273	5339.203125
869.625977	5169.020020
868.471680	5282.646973
867.317383	5361.575195
866.162109	5265.108398
865.007813	5268.248535
863.852539	5212.960449
862.696289	5285.341309
861.541016	5253.865723
860.384766	5276.466309
859.228516	5190.956543
858.072266	5382.158203
856.915039	5171.322754
855.757813	5222.006836
854.600586	5179.785645
853.442383	5126.785156
852.285156	5082.444336
851.126953	5238.871094
849.968750	5209.630859
848.809570	5223.555664
847.650391	5151.188965
846.491211	5203.938965
845.332031	5153.169922
844.171875	5184.338379
843.012695	5252.129883
841.851563	5108.731934
840.691406	5217.438477
839.530273	5252.869629
838.369141	5152.631836
837.208008	5304.307617
836.046875	5096.491211
834.884766	5200.771484
833.722656	5147.962402
832.560547	4998.392090
831.397461	5152.079102
830.234375	5165.959473
829.071289	5147.593262
827.908203	5097.002441
826.744141	5102.291016
825.580078	5056.028320
824.416016	5194.458984
823.251953	5131.020996
822.086914	5140.587891
820.921875	5171.608887
819.756836	5121.090332
818.590820	5049.144531
817.425781	5090.886230
816.259766	5156.192383
815.092773	5049.991211
813.926758	4986.697266
812.759766	5030.556152
811.592773	5048.690430
810.424805	5038.976563
809.257813	5057.100098
808.089844	4963.906738
806.920898	5041.959473
805.752930	5055.789551
804.583984	5093.142578
803.415039	5070.597656
802.246094	5050.200684
801.076172	5038.363281
799.906250	5045.764648
798.736328	5038.206055
797.566406	4842.668457
796.395508	5102.117188
795.224609	4996.331055
794.053711	4971.710938
792.881836	4934.296875
791.710938	5082.533203
790.538086	5055.775879
789.366211	5073.818359
788.194336	5006.561035
787.021484	4905.226074
785.848633	5057.560547
784.674805	5011.660156
783.500977	5008.386719
782.327148	4919.920898
781.153320	5003.972656
779.979492	4960.253418
778.804688	4956.992676
777.629883	4975.012695
776.454102	4931.328613
775.279297	4987.629395
774.103516	5003.501953
772.927734	4915.195801
771.750977	4924.700195
770.575195	4951.200195
769.398438	4967.064941
768.220703	4946.813965
767.043945	4960.547852
765.866211	4921.199707
764.688477	4958.280762
763.510742	4901.973145
762.332031	5011.174805
761.153320	4920.942871
759.974609	4921.937988
758.794922	4899.610840
757.616211	4993.874023
756.436523	4977.897461
755.255859	4987.351563
754.076172	5060.346680
752.895508	4925.773438
751.714844	5125.781250
750.533203	5025.121582
749.352539	4945.669922
748.170898	5141.303223
746.988281	5080.897949
745.806641	5102.997070
744.624023	5266.744141
743.441406	5013.992188
742.258789	5289.690918
741.075195	5252.560059
739.891602	5369.649414
738.708008	5615.509277
737.523438	5781.022949
736.339844	6045.673340
735.155273	6424.165527
733.969727	6775.054199
732.785156	7026.636230
731.599609	6995.498535
730.414063	7019.195801
729.227539	6802.567871
728.041992	6577.608398
726.855469	6129.404785
725.667969	5900.488770
724.481445	5549.524902
723.293945	5470.343750
722.106445	5218.579102
720.918945	5255.264160
719.730469	5211.974609
718.541992	5065.624512
717.353516	4995.056152
716.164063	4829.897949
714.975586	4891.854980
713.786133	4716.287109
712.595703	4870.695801
711.406250	4791.848145
710.215820	4805.448730
709.025391	4879.936523
707.833984	4786.444824
706.642578	4913.373535
705.451172	4807.325684
704.259766	4711.815918
703.068359	4865.938965
701.875977	4764.168457
700.683594	4731.625977
699.490234	4835.334473
698.297852	4834.221680
697.104492	4831.014648
695.910156	4909.493652
694.716797	4801.568848
693.522461	4769.060547
692.328125	4776.334961
691.132813	4750.124512
689.938477	4755.307129
688.743164	4779.311035
687.547852	4843.035156
686.351563	4785.472168
685.155273	4828.263184
683.958984	4685.053223
682.762695	4757.095215
681.565430	4808.217285
680.368164	4681.815430
679.170898	4839.405273
677.973633	4819.504395
676.775391	4935.253418
675.577148	4863.181641
674.378906	4816.171875
673.179688	4875.536621
671.980469	4914.024902
670.781250	4864.950684
669.581055	4920.094238
668.381836	4923.125977
667.181641	4759.520996
665.980469	4904.195313
664.780273	4996.752930
663.579102	5008.088867
662.377930	5052.715332
661.175781	4926.717285
659.973633	4931.820313
658.771484	5055.456543
657.569336	4991.916504
656.367188	5026.100586
655.164063	4991.689941
653.960938	5017.546875
652.756836	4993.539551
651.552734	4965.389160
650.348633	5036.910156
649.144531	5002.534668
647.939453	4972.325684
646.735352	4890.260254
645.529297	4972.102539
644.324219	4941.920410
643.118164	4942.851563
641.912109	4925.126465
640.706055	4992.376953
639.499023	4856.549316
638.292969	4878.212402
637.084961	4933.000000
635.877930	4919.437012
634.669922	4953.489746
633.461914	4875.771973
632.253906	4988.441895
631.044922	4887.997559
629.836914	4793.803711
628.626953	4817.505859
627.417969	5018.969727
626.208008	4769.811523
624.998047	4983.589355
623.788086	4866.757813
622.577148	4801.610352
621.366211	4864.505859
620.155273	4855.123535
618.944336	4845.744629
617.732422	4821.926758
616.520508	4880.632813
615.308594	4823.819824
614.095703	4773.218262
612.882813	4776.236328
611.669922	4771.008789
610.457031	4792.568848
609.243164	4752.320313
608.029297	4681.197266
606.815430	4671.877441
605.600586	4742.843750
604.385742	4645.017090
603.170898	4713.898926
601.955078	4659.322754
600.740234	4643.847168
599.524414	4710.624023
598.307617	4748.590332
597.091797	4663.227539
595.875000	4678.584961
594.658203	4630.253418
593.440430	4701.062012
592.222656	4644.534180
591.004883	4686.566895
589.787109	4552.079102
588.568359	4754.158203
587.349609	4632.024414
586.130859	4563.270996
584.912109	4562.213379
583.692383	4641.104004
582.472656	4607.236328
581.251953	4700.422852
580.032227	4723.915527
578.811523	4642.945801
577.589844	4729.915527
576.369141	4704.253418
575.147461	4701.115723
573.925781	4644.779297
572.703125	4713.255859
571.481445	4753.066895
570.258789	4617.011719
569.035156	4765.172363
567.812500	4678.228027
566.588867	4701.662598
565.365234	4647.458008
564.140625	4711.735840
562.916992	4765.773926
561.692383	4756.502441
560.466797	4573.754883
559.242188	4729.810059
558.016602	4730.752930
556.791016	4690.904297
555.564453	4655.151855
554.337891	4662.226074
553.111328	4575.543945
551.884766	4737.492676
550.657227	4752.690430
549.429688	4735.293945
548.202148	4817.679688
546.974609	4582.451660
545.746094	4772.703125
544.517578	4659.682129
543.288086	4790.831543
542.058594	4659.552734
540.829102	4658.471680
539.599609	4830.187500
538.370117	4709.152344
537.139648	4870.616211
535.909180	4763.848145
534.677734	4783.052734
533.446289	4834.736328
532.214844	4713.839355
530.983398	4759.426270
529.750977	4762.379395
528.519531	4777.502930
527.286133	4739.886719
526.053711	4647.538574
524.820313	4774.176270
523.586914	4918.996094
522.353516	5017.143066
521.119141	4977.487305
519.884766	4998.610840
518.650391	4825.333984
517.415039	4743.236328
516.179688	4683.439941
514.944336	4649.976563
513.708984	4663.058105
