#Wave		#Intensity
2109.224609	8637.018555
2107.712891	8493.123047
2106.201172	8483.018555
2104.687500	8492.756836
2103.175781	8601.665039
2101.662109	8525.442383
2100.150391	8515.338867
2098.636719	8358.228516
2097.123047	8445.603516
2095.607422	8537.893555
2094.093750	8575.668945
2092.578125	8596.923828
2091.064453	8468.016602
2089.548828	8444.744141
2088.033203	8482.507813
2086.517578	8383.389648
2085.000000	8493.689453
2083.484375	8397.908203
2081.966797	8376.324219
2080.449219	8407.471680
2078.931641	8408.956055
2077.414063	8501.016602
2075.894531	8446.499023
2074.376953	8359.083008
2072.857422	8365.513672
2071.337891	8561.166992
2069.818359	8439.235352
2068.298828	8496.631836
2066.777344	8387.921875
2065.257813	8317.071289
2063.736328	8461.571289
2062.214844	8397.307617
2060.693359	8388.933594
2059.171875	8415.056641
2057.648438	8295.008789
2056.126953	8404.877930
2054.603516	8112.521484
2053.080078	8228.948242
2051.556641	8483.154297
2050.033203	8433.761719
2048.507813	8410.632813
2046.984375	8403.911133
2045.458984	8352.927734
2043.933594	8380.641602
2042.408203	8275.606445
2040.882813	8316.432617
2039.355469	8245.855469
2037.830078	8296.496094
2036.302734	8320.917969
2034.775391	8363.335938
2033.248047	8454.834961
2031.718750	8330.305664
2030.191406	8317.073242
2028.662109	8357.820313
2027.134766	8473.770508
2025.605469	8282.313477
2024.076172	8411.306641
2022.544922	8373.557617
2021.015625	8278.640625
2019.484375	8453.289063
2017.955078	8358.395508
2016.423828	8314.159180
2014.892578	8251.984375
2013.359375	8341.620117
2011.828125	8356.158203
2010.294922	8356.006836
2008.761719	8471.660156
2007.230469	8306.783203
2005.695313	8311.533203
2004.162109	8238.041992
2002.628906	8350.361328
2001.093750	8335.547852
1999.558594	8275.128906
1998.023438	8304.309570
1996.488281	8234.153320
1994.953125	8188.445801
1993.417969	8242.040039
1991.880859	8220.757813
1990.343750	8233.650391
1988.806641	8269.307617
1987.269531	8230.145508
1985.732422	8390.978516
1984.193359	8294.915039
1982.656250	8176.139160
1981.117188	8320.632813
1979.578125	8175.910645
1978.039063	8161.179199
1976.500000	8355.919922
1974.958984	8287.583984
1973.417969	8396.191406
1971.878906	8269.457031
1970.337891	8300.147461
1968.796875	8509.250000
1967.253906	8296.621094
1965.712891	8187.849121
1964.169922	8259.055664
1962.626953	8271.887695
1961.083984	8189.115234
1959.541016	8360.714844
1957.998047	8318.449219
1956.455078	8209.809570
1954.910156	8297.109375
1953.365234	8256.502930
1951.820313	8279.024414
1950.275391	8317.715820
1948.730469	8212.426758
1947.183594	8081.306152
1945.638672	8223.495117
1944.091797	8132.841797
1942.544922	8368.699219
1940.998047	8326.528320
1939.449219	8114.745605
1937.902344	8188.938965
1936.353516	8280.863281
1934.804688	8296.868164
1933.255859	8167.591797
1931.707031	8159.406250
1930.158203	8201.241211
1928.607422	8318.875000
1927.058594	8286.469727
1925.507813	8175.068359
1923.957031	8274.899414
1922.406250	8302.158203
1920.853516	8248.834961
1919.302734	8237.421875
1917.750000	8151.919922
1916.197266	8126.038086
1914.644531	8090.506836
1913.091797	8217.571289
1911.539063	8201.347656
1909.984375	8231.792969
1908.431641	8162.485840
1906.876953	8163.975098
1905.322266	8192.799805
1903.767578	8200.712891
1902.210938	8245.589844
1900.656250	8279.199219
1899.099609	8291.908203
1897.542969	7978.530762
1895.986328	8251.463867
1894.429688	8248.113281
1892.873047	8259.210938
1891.314453	8167.587402
1889.755859	8093.652832
1888.199219	8104.775879
1886.640625	8388.562500
1885.080078	8213.600586
1883.521484	8245.532227
1881.960938	8131.585449
1880.402344	8195.572266
1878.841797	8120.137207
1877.281250	8164.875977
1875.720703	8105.494141
1874.158203	8028.523926
1872.597656	8057.243652
1871.035156	8106.758789
1869.472656	8066.640625
1867.910156	8088.934082
1866.347656	8187.995605
1864.783203	8184.666504
1863.220703	8047.034668
1861.656250	8146.041016
1860.091797	8189.068848
1858.527344	8141.001465
1856.962891	8284.654297
1855.396484	8206.240234
1853.832031	8127.859375
1852.265625	8158.072266
1850.699219	8180.291504
1849.132813	8240.800781
1847.566406	8181.622559
1845.998047	8082.590820
1844.431641	8117.564453
1842.863281	8157.306152
1841.294922	8214.566406
1839.726563	8192.112305
1838.156250	8150.545898
1836.587891	8128.113770
1835.017578	8080.206543
1833.449219	8045.058594
1831.878906	8232.821289
1830.306641	8318.630859
1828.736328	8224.570313
1827.166016	8173.509277
1825.593750	8190.872559
1824.021484	8178.009766
1822.449219	8161.972168
1820.876953	8177.735840
1819.304688	8258.659180
1817.730469	8337.958984
1816.158203	8259.938477
1814.583984	8180.361328
1813.009766	8138.932129
1811.435547	8224.539063
1809.859375	8208.515625
1808.285156	8278.201172
1806.708984	8190.769043
1805.132813	8220.767578
1803.556641	8212.687500
1801.980469	8179.238281
1800.404297	8304.342773
1798.826172	8350.141602
1797.248047	8308.759766
1795.671875	8105.786621
1794.093750	8283.074219
1792.513672	8314.583008
1790.935547	8331.827148
1789.355469	8266.745117
1787.777344	8266.582031
1786.197266	8408.833984
1784.617188	8283.657227
1783.035156	8375.229492
1781.455078	8316.530273
1779.873047	8167.735352
1778.292969	8194.462891
1776.710938	8268.590820
1775.128906	8334.786133
1773.544922	8337.764648
1771.962891	8337.583008
1770.378906	8361.085938
1768.794922	8206.183594
1767.212891	8307.044922
1765.626953	8253.213867
1764.042969	8248.314453
1762.458984	8276.541992
1760.873047	8164.399414
1759.287109	8262.006836
1757.701172	8331.198242
1756.115234	8324.709961
1754.529297	8122.833984
1752.941406	8336.945313
1751.355469	8183.977539
1749.767578	8350.742188
1748.179688	8287.576172
1746.591797	8373.971680
1745.001953	8243.155273
1743.414063	8137.569336
1741.824219	8326.188477
1740.234375	8451.818359
1738.644531	8277.068359
1737.054688	8366.497070
1735.462891	8377.301758
1733.873047	8370.815430
1732.281250	8474.306641
1730.689453	8298.163086
1729.097656	8374.926758
1727.505859	8362.165039
1725.912109	8420.045898
1724.320313	8391.583984
1722.726563	8452.571289
1721.132813	8513.532227
1719.539063	8574.466797
1717.945313	8475.431641
1716.349609	8525.373047
1714.755859	8509.461914
1713.160156	8523.332031
1711.564453	8552.862305
1709.968750	8583.946289
1708.371094	8655.734375
1706.775391	8605.363281
1705.177734	8512.747070
1703.580078	8662.757813
1701.982422	8701.606445
1700.384766	8646.573242
1698.787109	8594.690430
1697.187500	8705.459961
1695.587891	8766.153320
1693.990234	8775.237305
1692.390625	8795.256836
1690.789063	8705.896484
1689.189453	8785.281250
1687.587891	8716.262695
1685.988281	8823.715820
1684.386719	8867.117188
1682.785156	8809.049805
1681.181641	8961.666016
1679.580078	9005.009766
1677.976563	8979.703125
1676.373047	9168.051758
1674.769531	9141.161133
1673.166016	9083.105469
1671.562500	9307.156250
1669.957031	9351.925781
1668.353516	9487.027344
1666.748047	9491.244141
1665.142578	9546.843750
1663.537109	9692.714844
1661.929688	9807.393555
1660.324219	9894.011719
1658.716797	10122.172852
1657.109375	10354.902344
1655.501953	10320.044922
1653.894531	10454.677734
1652.285156	10607.907227
1650.677734	10658.495117
1649.068359	10861.337891
1647.458984	11112.251953
1645.849609	11147.166992
1644.240234	11304.741211
1642.628906	11586.449219
1641.019531	11625.894531
1639.408203	11759.986328
1637.796875	11921.948242
1636.185547	12159.848633
1634.572266	12109.185547
1632.960938	12635.343750
1631.347656	12590.799805
1629.734375	12907.396484
1628.121094	12957.333984
1626.507813	13100.203125
1624.894531	13342.139648
1623.279297	13515.835938
1621.664063	13920.142578
1620.048828	14011.600586
1618.433594	14065.876953
1616.818359	14336.743164
1615.203125	14715.777344
1613.585938	14989.480469
1611.968750	15328.008789
1610.351563	15534.988281
1608.734375	15842.341797
1607.117188	16029.032227
1605.498047	15905.110352
1603.878906	15679.296875
1602.261719	15702.206055
1600.640625	15637.099609
1599.021484	15744.904297
1597.402344	16028.597656
1595.781250	16037.521484
1594.162109	16092.719727
1592.541016	15970.528320
1590.919922	16025.713867
1589.296875	15717.047852
1587.675781	15547.230469
1586.052734	15685.681641
1584.429688	15465.099609
1582.806641	15404.803711
1581.183594	15284.473633
1579.560547	15202.684570
1577.935547	15347.212891
1576.312500	15431.656250
1574.687500	15306.801758
1573.062500	15465.056641
1571.435547	15201.824219
1569.810547	15524.564453
1568.183594	15505.870117
1566.558594	15545.590820
1564.931641	15124.280273
1563.304688	14967.406250
1561.675781	14990.315430
1560.048828	14878.071289
1558.419922	14830.359375
1556.791016	14874.771484
1555.162109	14828.613281
1553.533203	14919.036133
1551.904297	15127.542969
1550.273438	15112.032227
1548.642578	14880.314453
1547.011719	15160.747070
1545.380859	14950.574219
1543.750000	15053.107422
1542.119141	15083.585938
1540.486328	14826.076172
1538.853516	14874.965820
1537.220703	14585.455078
1535.587891	14776.736328
1533.955078	14291.468750
1532.320313	14038.989258
1530.685547	13945.717773
1529.052734	13777.539063
1527.416016	13532.975586
1525.781250	13334.379883
1524.146484	13345.271484
1522.509766	13236.960938
1520.873047	13295.230469
1519.236328	13084.631836
1517.599609	13355.183594
1515.962891	13048.469727
1514.324219	13132.674805
1512.687500	13111.536133
1511.048828	13082.776367
1509.410156	12980.801758
1507.771484	13058.844727
1506.130859	13188.698242
1504.492188	12883.998047
1502.851563	12724.228516
1501.210938	12540.145508
1499.570313	12502.402344
1497.927734	12173.735352
1496.287109	12055.371094
1494.644531	12010.140625
1493.001953	12069.964844
1491.359375	12181.507813
1489.716797	11978.030273
1488.074219	12016.521484
1486.429688	11797.955078
1484.785156	11845.589844
1483.140625	11890.163086
1481.496094	11796.399414
1479.851563	11951.894531
1478.207031	12017.683594
1476.560547	11898.126953
1474.914063	11973.008789
1473.267578	11938.537109
1471.621094	11840.324219
1469.972656	12022.920898
1468.326172	11745.684570
1466.677734	11826.581055
1465.029297	11616.238281
1463.380859	11633.438477
1461.732422	11627.890625
1460.082031	11866.370117
1458.431641	11794.095703
1456.783203	11746.091797
1455.132813	11823.829102
1453.480469	11722.833984
1451.830078	11653.676758
1450.177734	11614.823242
1448.527344	11516.962891
1446.875000	11485.718750
1445.220703	11469.614258
1443.568359	11447.466797
1441.916016	11286.215820
1440.261719	11114.451172
1438.607422	11164.940430
1436.953125	11142.874023
1435.298828	10990.889648
1433.642578	11002.097656
1431.988281	10934.774414
1430.332031	10644.030273
1428.675781	10807.759766
1427.019531	10841.631836
1425.361328	10688.395508
1423.705078	10686.073242
1422.046875	10585.720703
1420.388672	10604.528320
1418.730469	10537.400391
1417.072266	10517.022461
1415.412109	10534.324219
1413.753906	10574.214844
1412.093750	10653.247070
1410.433594	10566.600586
1408.773438	10787.119141
1407.111328	10804.337891
1405.451172	10889.266602
1403.789063	11154.704102
1402.126953	11096.617188
1400.464844	11346.852539
1398.802734	11476.693359
1397.138672	11397.525391
1395.474609	11292.842773
1393.812500	11266.337891
1392.146484	11074.596680
1390.482422	10946.018555
1388.818359	10859.540039
1387.152344	10830.146484
1385.486328	11010.896484
1383.820313	10886.942383
1382.154297	10982.083008
1380.488281	10994.682617
1378.820313	11157.239258
1377.154297	11177.290039
1375.486328	11039.938477
1373.818359	11079.486328
1372.148438	10988.662109
1370.480469	11094.114258
1368.810547	11066.225586
1367.140625	11075.782227
1365.470703	10964.076172
1363.800781	10840.444336
1362.130859	10724.347656
1360.458984	10784.832031
1358.787109	10933.534180
1357.115234	11079.178711
1355.443359	11045.354492
1353.771484	10960.723633
1352.097656	11040.511719
1350.423828	11320.465820
1348.751953	11434.493164
1347.076172	11443.931641
1345.402344	11619.094727
1343.728516	11876.282227
1342.052734	12219.915039
1340.376953	12378.376953
1338.701172	12594.946289
1337.025391	12883.007813
1335.347656	12918.945313
1333.671875	13041.331055
1331.994141	12954.998047
1330.316406	12897.014648
1328.638672	12834.584961
1326.960938	12813.887695
1325.281250	12817.024414
1323.601563	12671.276367
1321.921875	12564.292969
1320.242188	12478.188477
1318.562500	12576.612305
1316.880859	12358.153320
1315.201172	12461.019531
1313.519531	12223.351563
1311.837891	12193.898438
1310.154297	11992.060547
1308.472656	11934.438477
1306.789063	11848.615234
1305.105469	11655.893555
1303.421875	11466.226563
1301.738281	11343.446289
1300.054688	11202.909180
1298.369141	11108.432617
1296.683594	10889.377930
1294.998047	10895.871094
1293.312500	10780.760742
1291.626953	10799.133789
1289.939453	10919.772461
1288.253906	10932.176758
1286.566406	10791.968750
1284.878906	10813.281250
1283.189453	10763.498047
1281.501953	10682.641602
1279.812500	10478.957031
1278.123047	10473.675781
1276.433594	10378.138672
1274.744141	10467.555664
1273.052734	10512.563477
1271.363281	10371.239258
1269.671875	10265.457031
1267.980469	10272.047852
1266.289063	10071.761719
1264.595703	10178.849609
1262.904297	10070.246094
1261.210938	9859.797852
1259.517578	9935.855469
1257.824219	9926.268555
1256.128906	9826.666992
1254.435547	9755.140625
1252.740234	9779.523438
1251.044922	9721.309570
1249.349609	9674.916992
1247.652344	9696.349609
1245.957031	9722.193359
1244.259766	9537.328125
1242.562500	9600.020508
1240.865234	9440.298828
1239.167969	9366.047852
1237.468750	9390.459961
1235.769531	9170.546875
1234.072266	9087.574219
1232.371094	8978.158203
1230.671875	9039.399414
1228.972656	8905.042969
1227.271484	8773.686523
1225.570313	8676.192383
1223.869141	8534.656250
1222.167969	8673.789063
1220.464844	8526.440430
1218.763672	8575.932617
1217.060547	8660.637695
1215.357422	8550.083984
1213.654297	8746.285156
1211.949219	8675.373047
1210.246094	8693.969727
1208.541016	8755.084961
1206.835938	8756.059570
1205.130859	8748.236328
1203.423828	8696.451172
1201.718750	8685.712891
1200.011719	8726.249023
1198.304688	8607.131836
1196.597656	8534.920898
1194.888672	8612.058594
1193.181641	8816.490234
1191.472656	8621.367188
1189.763672	8778.890625
1188.054688	8746.208008
1186.343750	8748.632813
1184.634766	8862.161133
1182.923828	8912.790039
1181.212891	8866.951172
1179.501953	8755.389648
1177.791016	8738.817383
1176.078125	8698.886719
1174.365234	8807.888672
1172.652344	8894.946289
1170.939453	8669.673828
1169.226563	8638.544922
1167.511719	8619.098633
1165.798828	8643.409180
1164.083984	8358.615234
1162.369141	8371.310547
1160.652344	8400.030273
1158.937500	8303.433594
1157.220703	8268.059570
1155.503906	8288.041992
1153.787109	8217.742188
1152.070313	8112.536133
1150.351563	8125.260742
1148.632813	8097.238281
1146.916016	7919.393066
1145.195313	7857.977051
1143.476563	7872.198242
1141.757813	7835.532227
1140.037109	7676.797363
1138.316406	7682.329102
1136.595703	7628.295410
1134.875000	7617.857422
1133.152344	7619.040039
1131.429688	7416.977051
1129.708984	7379.014648
1127.984375	7357.030762
1126.261719	7377.127930
1124.539063	7349.351074
1122.814453	7199.776855
1121.089844	7199.597168
1119.365234	7232.753906
1117.640625	7136.922852
1115.914063	7246.863281
1114.187500	7124.999023
1112.462891	7175.517090
1110.734375	7239.041992
1109.007813	7040.543457
1107.281250	7073.678711
1105.552734	6912.923340
1103.824219	6931.605957
1102.095703	6804.216309
1100.367188	6818.576172
1098.636719	6650.794434
1096.908203	6764.898438
1095.177734	6789.369141
1093.447266	6627.484375
1091.714844	6751.623535
1089.984375	6651.905273
1088.251953	6745.666992
1086.519531	6570.947266
1084.787109	6656.025391
1083.054688	6820.405273
1081.320313	6820.295410
1079.585938	6735.112793
1077.851563	6795.566895
1076.117188	6732.045898
1074.382813	6720.425781
1072.648438	6687.201660
1070.912109	6702.960938
1069.175781	6656.795410
1067.439453	6783.401855
1065.701172	6742.994629
1063.964844	6619.146484
1062.226563	6623.390625
1060.488281	6562.909180
1058.750000	6519.710449
1057.011719	6608.792480
1055.271484	6516.733398
1053.531250	6562.665039
1051.791016	6463.473633
1050.050781	6486.414063
1048.310547	6472.007324
1046.568359	6459.042480
1044.826172	6470.483398
1043.083984	6312.587891
1041.341797	6479.000977
1039.599609	6331.214844
1037.855469	6440.185059
1036.113281	6358.424316
1034.369141	6268.099609
1032.623047	6382.739746
1030.878906	6411.364258
1029.132813	6276.684082
1027.386719	6203.643066
1025.640625	6309.600098
1023.894531	6386.879883
1022.148438	6402.587891
1020.400391	6263.768066
1018.652344	6366.750977
1016.904297	6338.118164
1015.156250	6353.820313
1013.406250	6372.373047
1011.658203	6263.727539
1009.908203	6230.855957
1008.158203	6322.272949
1006.408203	6326.532227
1004.656250	6220.849609
1002.904297	6320.769043
1001.152344	6362.128906
999.400391	6297.886719
997.648438	6324.966797
995.896484	6262.187500
994.142578	6247.913574
992.388672	6049.758301
990.634766	6158.102539
988.878906	6149.560059
987.125000	6210.821289
985.369141	6091.183594
983.613281	6085.508301
981.857422	6091.223145
980.099609	6166.670898
978.343750	6182.322754
976.585938	6121.150391
974.828125	6126.849121
973.070313	6193.685547
971.310547	6108.384277
969.552734	6207.880859
967.792969	6112.668457
966.033203	6197.910645
964.273438	6227.724121
962.511719	6324.258301
960.750000	6312.859863
958.990234	6484.548828
957.226563	6434.806152
955.464844	6543.968262
953.703125	6316.950195
951.939453	6428.923828
950.175781	6275.751953
948.412109	6172.254883
946.648438	6277.097656
944.882813	6167.980469
943.117188	6187.796387
941.351563	6156.627441
939.585938	6197.670410
937.820313	6101.407715
936.052734	6026.414551
934.285156	5914.673828
932.517578	6125.451660
930.750000	6061.814941
928.982422	6081.613281
927.212891	6114.122559
925.443359	6085.855957
923.673828	6109.871582
921.904297	6146.586914
920.132813	6054.789063
918.361328	6029.383789
916.591797	5999.755371
914.818359	5933.453125
913.046875	6054.806641
911.275391	6059.040527
909.501953	5963.157227
907.728516	6018.160156
905.955078	6004.075195
904.179688	5868.815918
902.406250	5904.077637
900.630859	5836.507324
898.855469	5874.575195
897.080078	5857.722168
895.302734	5793.022949
893.525391	5749.459961
891.750000	5855.036133
889.970703	5828.355469
888.193359	5766.533691
886.416016	5708.957031
884.636719	5739.951660
882.857422	5789.198242
881.078125	5669.843262
879.296875	5685.374512
877.517578	5696.685059
875.736328	5720.624512
873.955078	5644.903320
872.173828	5731.985352
870.390625	5691.367188
868.609375	5718.087891
866.826172	5589.152344
865.042969	5530.369629
863.259766	5583.737305
861.474609	5609.055176
859.689453	5645.567383
857.904297	5649.849609
856.119141	5620.523438
854.333984	5686.403809
852.546875	5617.893555
850.761719	5630.571777
848.974609	5711.790039
847.185547	5658.704590
845.398438	5654.583008
843.609375	5665.840332
841.822266	5850.395508
840.031250	5689.734375
838.242188	5744.279297
836.453125	5726.173340
834.662109	5691.319824
832.871094	5618.791016
831.080078	5628.638672
829.289063	5582.668457
827.496094	5578.568848
825.703125	5500.553223
823.910156	5461.615234
822.117188	5538.397949
820.324219	5597.026367
818.529297	5482.850586
816.734375	5421.662598
814.939453	5509.521973
813.144531	5441.394043
811.347656	5543.126953
809.550781	5486.155273
807.755859	5365.206055
805.957031	5437.671387
804.160156	5423.875977
802.361328	5392.011719
800.564453	5438.006348
798.765625	5397.813965
796.964844	5528.539551
795.166016	5466.118164
793.365234	5410.669434
791.564453	5449.660645
789.763672	5444.213379
787.962891	5522.035645
786.160156	5554.034180
784.359375	5648.438477
782.556641	5623.532227
780.751953	5489.104004
778.949219	5383.848633
777.144531	5421.382813
775.339844	5474.139648
773.535156	5435.448730
771.730469	5413.394043
769.925781	5430.116211
768.119141	5391.461914
766.312500	5386.038086
764.505859	5459.478516
762.697266	5401.478027
760.890625	5422.329590
759.082031	5444.552734
757.273438	5422.533691
755.464844	5549.770996
753.654297	5598.197266
751.845703	5772.295410
750.035156	5874.501465
748.224609	6321.811523
746.412109	6405.895020
744.601563	6713.491211
742.789063	7038.876465
740.976563	7205.487305
739.164063	7423.040527
737.349609	8041.678711
735.537109	8808.881836
733.722656	9443.433594
731.908203	9941.294922
730.091797	9991.281250
728.277344	9170.965820
726.460938	8249.162109
724.644531	7410.375488
722.828125	6636.660156
721.009766	6273.274414
719.193359	5936.192871
717.375000	5780.779297
715.556641	5694.175781
713.736328	5626.854492
711.917969	5477.119141
710.097656	5423.617676
708.277344	5420.958496
706.457031	5249.407227
704.636719	5308.565430
702.814453	5322.403320
700.992188	5225.091309
699.169922	5286.955078
697.347656	5321.359375
695.523438	5377.685059
693.699219	5569.696777
691.875000	5509.442871
690.050781	5667.076172
688.226563	5647.922363
686.400391	5643.842285
684.574219	5621.963867
682.748047	5548.078125
680.921875	5523.494629
679.095703	5637.113770
677.267578	5602.944824
675.439453	5494.941895
673.611328	5519.613770
671.781250	5693.269531
669.953125	5810.810547
668.123047	5858.615234
666.292969	6045.724609
664.460938	5777.988281
662.630859	5620.969238
660.798828	5552.748047
658.966797	5466.818359
657.134766	5550.106445
655.302734	5758.843262
653.468750	5746.563477
651.634766	5803.820313
649.800781	6009.620117
647.966797	6091.314941
646.130859	6083.052734
644.294922	6016.225586
642.458984	5758.786133
640.623047	5719.294922
638.787109	5712.488770
636.949219	5745.146973
635.111328	5634.942871
633.273438	5660.802734
631.435547	5545.231445
629.595703	5515.361328
627.757813	5545.307129
625.917969	5444.791504
624.076172	5507.342773
622.236328	5617.399902
620.394531	5377.079590
618.552734	5468.108887
616.710938	5331.084961
614.869141	5324.385742
613.025391	5286.489258
611.183594	5254.034668
609.339844	5278.543457
607.494141	5289.484375
605.650391	5197.419922
603.804688	5104.043945
601.958984	5208.485840
600.113281	5146.299316
598.267578	5006.966797
596.419922	5122.184570
594.572266	5011.342773
592.724609	5023.676270
590.876953	5160.449707
589.027344	5190.321289
587.179688	5125.536621
585.330078	5016.175781
583.480469	4992.004395
581.628906	4884.078125
579.779297	4846.441406
577.927734	5054.597656
576.076172	5061.490234
574.222656	5072.428711
572.371094	5007.792969
570.517578	5025.483887
568.664063	5113.303223
566.810547	5175.459961
564.955078	5238.934082
563.101563	5170.290039
561.246094	5154.231445
559.390625	5159.734863
557.533203	5135.604492
555.677734	5037.424805
553.820313	4943.331055
551.962891	4905.809570
550.105469	4876.378906
548.246094	4902.117676
546.386719	4913.049316
544.527344	4921.286621
542.667969	4855.583008
540.808594	4823.510254
538.947266	4896.256836
537.085938	4911.205078
535.224609	4987.924316
533.363281	5006.870605
531.500000	5004.330078
529.638672	4968.239258
527.775391	5022.061035
525.910156	5031.589844
524.046875	5096.098633
522.181641	5423.364258
520.316406	5919.367676
518.451172	5573.541016
516.585938	5176.966797
514.718750	4919.888184
512.851563	4767.385742
510.984375	4739.467285
509.117188	4651.329102
507.250000	4749.241699
505.380859	4721.346680
503.511719	4813.844727
501.642578	4693.678223
499.771484	4747.367188
497.902344	4759.596191
496.031250	4802.552734
494.160156	4870.872070
492.287109	4752.169922
490.416016	4757.708008
488.542969	4801.957520
486.669922	4703.376465
484.796875	4707.586914
482.921875	4742.478027
481.046875	4669.321289
479.171875	4629.534180
477.296875	4596.431152
475.421875	4697.951660
473.544922	4658.185547
471.667969	4598.456543
469.791016	4671.935059
467.914063	4605.573242
466.035156	4624.437012
464.156250	4628.651855
462.277344	4588.957520
460.398438	4513.366699
458.519531	4475.048340
456.638672	4485.941895
454.757813	4585.889648
452.876953	4490.437012
450.994141	4499.989258
449.113281	4389.991211
447.230469	4426.122559
445.347656	4450.287109
443.462891	4368.252930
441.580078	4433.556641
439.695313	4408.613770
437.810547	4530.910156
435.925781	4480.759766
434.039063	4451.845215
432.152344	4432.222656
430.267578	4468.263184
428.378906	4391.679199
426.492188	4401.222168
424.603516	4393.546875
422.714844	4457.361816
420.826172	4506.587402
418.937500	4423.468750
417.046875	4466.063477
415.158203	4426.638672
413.265625	4400.455078
411.375000	4523.662598
409.484375	4469.713379
407.591797	4444.858887
405.699219	4431.904785
403.806641	4414.994629
401.912109	4383.568359
400.019531	4383.838379
