#Wave		#Intensity
1585.210938	21801.951172
1584.209961	22176.597656
1583.208984	22159.517578
1582.208008	21847.843750
1581.206055	22110.398438
1580.204102	22143.251953
1579.202148	22026.386719
1578.200195	21779.853516
1577.198242	21782.824219
1576.195313	21885.533203
1575.192383	21923.380859
1574.189453	21854.035156
1573.186523	21904.332031
1572.182617	21909.759766
1571.178711	21832.986328
1570.174805	21651.644531
1569.170898	21552.544922
1568.166992	21779.593750
1567.162109	21782.548828
1566.158203	21805.410156
1565.153320	21390.402344
1564.147461	21390.947266
1563.142578	21560.593750
1562.136719	21635.689453
1561.130859	21770.414063
1560.125000	22190.884766
1559.119141	22235.984375
1558.113281	22539.425781
1557.106445	22852.673828
1556.099609	23103.710938
1555.092773	23367.058594
1554.084961	23751.921875
1553.078125	23794.154297
1552.070313	23957.945313
1551.062500	23957.947266
1550.054688	23764.498047
1549.045898	24069.527344
1548.038086	23871.175781
1547.029297	23995.119141
1546.020508	23630.832031
1545.011719	23425.257813
1544.001953	23474.902344
1542.992188	23658.257813
1541.982422	23279.482422
1540.972656	23371.207031
1539.962891	23071.843750
1538.952148	23015.103516
1537.942383	23114.244141
1536.931641	22849.746094
1535.919922	22523.533203
1534.909180	22852.648438
1533.897461	22370.837891
1532.886719	22227.806641
1531.874023	22326.982422
1530.862305	22127.199219
1529.850586	21873.162109
1528.837891	22105.691406
1527.825195	21824.603516
1526.812500	21985.462891
1525.799805	21719.320313
1524.786133	21623.533203
1523.772461	21488.314453
1522.758789	21358.083984
1521.745117	21358.593750
1520.731445	21590.835938
1519.716797	21426.156250
1518.702148	21291.115234
1517.687500	21299.023438
1516.672852	21077.849609
1515.657227	21442.892578
1514.642578	21529.552734
1513.626953	21557.095703
1512.610352	21515.714844
1511.594727	21462.044922
1510.579102	21322.291016
1509.562500	21472.832031
1508.545898	21532.322266
1507.529297	21318.878906
1506.511719	21636.478516
1505.494141	21452.589844
1504.477539	21514.488281
1503.458984	21772.888672
1502.441406	21601.363281
1501.423828	21552.687500
1500.405273	21597.324219
1499.386719	21916.853516
1498.368164	21890.224609
1497.348633	21601.078125
1496.330078	22185.333984
1495.310547	22239.597656
1494.291016	22009.402344
1493.271484	22134.771484
1492.250977	22078.714844
1491.231445	21887.900391
1490.210938	21937.263672
1489.190430	21812.693359
1488.168945	22111.845703
1487.148438	21933.421875
1486.126953	22244.662109
1485.105469	22266.972656
1484.083984	22196.291016
1483.061523	22624.708984
1482.040039	22908.638672
1481.017578	22749.828125
1479.995117	23451.693359
1478.971680	23564.164063
1477.949219	23942.970703
1476.925781	24407.140625
1475.902344	24663.468750
1474.878906	24807.339844
1473.855469	25363.828125
1472.831055	25907.876953
1471.806641	26178.322266
1470.782227	26695.128906
1469.757813	27009.212891
1468.733398	27625.644531
1467.708008	28719.832031
1466.682617	29879.400391
1465.657227	30548.480469
1464.631836	31741.306641
1463.605469	32819.105469
1462.579102	33747.839844
1461.552734	34902.718750
1460.526367	36317.695313
1459.500000	36711.898438
1458.472656	37020.738281
1457.445313	36718.562500
1456.417969	36703.640625
1455.390625	36048.902344
1454.362305	34689.074219
1453.334961	34173.632813
1452.306641	33045.726563
1451.277344	32402.005859
1450.249023	31092.662109
1449.219727	30240.652344
1448.191406	29160.646484
1447.162109	28396.822266
1446.131836	27871.281250
1445.102539	27294.974609
1444.072266	27277.167969
1443.041992	26645.408203
1442.011719	26409.380859
1440.981445	25952.710938
1439.950195	25760.576172
1438.918945	25689.755859
1437.887695	25589.873047
1436.856445	24968.935547
1435.825195	24886.203125
1434.792969	24616.955078
1433.760742	24481.041016
1432.728516	23967.396484
1431.696289	23739.664063
1430.663086	23766.197266
1429.629883	23625.724609
1428.596680	23141.716797
1427.563477	23286.892578
1426.530273	22948.273438
1425.496094	22953.171875
1424.461914	22788.832031
1423.427734	22605.220703
1422.393555	22250.103516
1421.358398	22334.871094
1420.323242	22120.060547
1419.288086	22011.605469
1418.252930	22069.804688
1417.217773	22287.312500
1416.181641	22128.199219
1415.145508	22130.832031
1414.109375	22509.832031
1413.073242	22792.187500
1412.036133	22903.199219
1411.000000	23436.109375
1409.962891	23527.652344
1408.924805	24267.478516
1407.887695	25170.847656
1406.849609	25673.927734
1405.812500	26656.109375
1404.773438	27765.509766
1403.735352	28826.292969
1402.697266	29568.894531
1401.658203	30224.548828
1400.619141	30502.167969
1399.580078	30854.242188
1398.540039	31112.371094
1397.500977	30954.394531
1396.460938	31185.943359
1395.420898	30494.416016
1394.380859	30399.140625
1393.339844	30003.578125
1392.298828	29718.677734
1391.257813	29100.070313
1390.216797	28966.740234
1389.175781	29344.791016
1388.133789	29525.873047
1387.091797	30196.392578
1386.049805	30346.029297
1385.007813	31455.037109
1383.964844	32498.830078
1382.922852	33954.570313
1381.879883	34558.734375
1380.835938	36274.660156
1379.792969	37146.441406
1378.749023	38319.703125
1377.706055	38342.835938
1376.661133	39347.730469
1375.617188	39791.988281
1374.573242	39541.921875
1373.528320	39691.597656
1372.483398	39042.089844
1371.438477	38646.414063
1370.392578	37638.652344
1369.347656	37135.828125
1368.301758	36544.761719
1367.255859	35805.753906
1366.208984	35133.960938
1365.163086	34106.476563
1364.116211	33929.750000
1363.069336	32871.898438
1362.022461	32366.013672
1360.974609	31879.437500
1359.927734	31844.125000
1358.879883	31553.515625
1357.832031	31489.656250
1356.783203	31487.832031
1355.735352	31238.011719
1354.686523	31493.716797
1353.637695	32702.748047
1352.588867	33282.136719
1351.539063	33930.371094
1350.490234	35423.976563
1349.440430	36393.000000
1348.390625	38306.910156
1347.339844	39391.570313
1346.290039	41113.636719
1345.239258	42701.718750
1344.188477	44424.742188
1343.137695	45523.847656
1342.085938	47276.468750
1341.034180	48700.238281
1339.982422	50113.902344
1338.930664	50614.355469
1337.878906	51649.214844
1336.826172	52351.054688
1335.773438	52853.085938
1334.720703	52592.660156
1333.667969	52396.437500
1332.614258	52280.996094
1331.561523	51567.578125
1330.507813	50322.988281
1329.453125	49883.066406
1328.399414	49341.347656
1327.344727	47806.355469
1326.290039	46859.914063
1325.235352	46134.292969
1324.180664	45001.394531
1323.125000	44224.339844
1322.070313	43539.984375
1321.014648	42593.054688
1319.958008	42316.554688
1318.902344	40880.277344
1317.845703	40573.480469
1316.789063	39945.019531
1315.732422	38557.449219
1314.675781	37804.316406
1313.618164	36763.011719
1312.560547	36029.484375
1311.502930	34643.894531
1310.445313	33504.652344
1309.386719	32710.835938
1308.329102	31546.494141
1307.270508	30994.306641
1306.210938	30071.648438
1305.152344	29541.246094
1304.092773	28784.490234
1303.033203	28162.552734
1301.973633	27871.156250
1300.914063	27263.820313
1299.853516	27045.835938
1298.792969	26370.554688
1297.732422	26178.775391
1296.671875	25838.605469
1295.611328	25486.794922
1294.549805	25290.607422
1293.488281	24842.494141
1292.426758	24783.093750
1291.364258	24549.503906
1290.302734	24756.154297
1289.240234	24510.900391
1288.177734	24590.419922
1287.114258	24455.855469
1286.051758	24361.324219
1284.988281	24713.560547
1283.924805	24835.275391
1282.861328	24907.583984
1281.796875	25595.486328
1280.732422	26034.078125
1279.667969	26528.851563
1278.603516	26826.164063
1277.539063	27663.324219
1276.473633	28246.628906
1275.408203	28670.105469
1274.342773	29374.951172
1273.277344	29833.191406
1272.210938	29803.423828
1271.145508	30148.828125
1270.079102	30058.050781
1269.011719	29615.746094
1267.945313	28615.929688
1266.877930	28612.210938
1265.810547	27882.388672
1264.743164	26944.455078
1263.674805	25985.843750
1262.607422	25430.251953
1261.539063	24942.761719
1260.470703	24429.740234
1259.401367	24162.558594
1258.333008	23960.974609
1257.263672	23373.654297
1256.194336	23011.011719
1255.125000	23001.455078
1254.054688	22935.816406
1252.985352	22800.115234
1251.915039	22440.228516
1250.843750	22489.177734
1249.773438	22561.451172
1248.702148	22393.255859
1247.630859	22297.478516
1246.559570	22239.076172
1245.488281	22211.021484
1244.416016	22196.970703
1243.343750	22404.451172
1242.271484	22091.949219
1241.199219	22290.037109
1240.125977	21842.527344
1239.053711	22387.730469
1237.980469	22175.654297
1236.906250	22534.242188
1235.833008	22301.263672
1234.758789	22550.257813
1233.684570	22375.558594
1232.610352	22622.099609
1231.536133	22421.863281
1230.460938	22496.169922
1229.385742	22584.394531
1228.310547	22384.291016
1227.235352	22649.152344
1226.159180	22616.439453
1225.083008	22527.974609
1224.006836	22409.349609
1222.930664	22209.486328
1221.853516	22367.285156
1220.777344	22144.298828
1219.700195	22281.154297
1218.622070	22216.068359
1217.544922	22058.208984
1216.466797	22083.654297
1215.388672	22577.519531
1214.310547	22445.183594
1213.232422	22572.515625
1212.153320	22437.914063
1211.074219	22699.576172
1209.995117	22856.880859
1208.916016	22963.166016
1207.835938	22932.787109
1206.755859	23022.800781
1205.675781	22997.048828
1204.595703	23283.697266
1203.514648	23119.083984
1202.434570	22841.201172
1201.353516	23014.380859
1200.271484	22815.244141
1199.190430	22849.658203
1198.108398	22366.378906
1197.026367	22789.044922
1195.944336	22331.392578
1194.862305	22095.652344
1193.779297	21947.757813
1192.696289	21744.517578
1191.613281	21635.994141
1190.530273	21264.451172
1189.446289	20784.630859
1188.362305	20812.468750
1187.278320	20535.884766
1186.194336	20215.613281
1185.109375	19980.765625
1184.024414	20064.054688
1182.939453	19898.460938
1181.854492	19993.246094
1180.768555	19549.054688
1179.683594	19434.332031
1178.597656	19404.835938
1177.510742	19234.949219
1176.424805	18956.978516
1175.337891	19058.736328
1174.250977	18958.035156
1173.164063	19308.111328
1172.077148	19097.035156
1170.989258	19063.046875
1169.901367	18633.781250
1168.813477	19024.978516
1167.724609	18928.998047
1166.636719	18842.244141
1165.547852	18891.003906
1164.458984	18900.712891
1163.369141	18823.197266
1162.280273	19018.787109
1161.190430	18895.390625
1160.100586	19056.472656
1159.010742	19077.593750
1157.919922	18988.650391
1156.829102	18902.037109
1155.738281	19342.568359
1154.647461	19113.853516
1153.555664	19364.009766
1152.464844	19456.027344
1151.373047	19268.646484
1150.280273	19635.357422
1149.188477	19692.919922
1148.095703	19317.962891
1147.002930	19908.626953
1145.910156	19952.365234
1144.817383	19932.048828
1143.723633	19925.458984
1142.629883	20264.031250
1141.536133	20120.248047
1140.441406	19841.718750
1139.347656	19910.531250
1138.252930	19764.626953
1137.158203	19858.539063
1136.062500	19539.208984
1134.967773	19596.607422
1133.872070	19800.021484
1132.776367	19551.628906
1131.679688	19595.296875
1130.583984	19593.337891
1129.487305	19716.771484
1128.390625	19899.416016
1127.292969	19539.593750
1126.196289	19485.236328
1125.098633	19487.849609
1124.000977	19629.384766
1122.903320	19684.333984
1121.804688	19436.484375
1120.706055	19309.369141
1119.607422	19614.648438
1118.508789	19260.046875
1117.409180	19697.123047
1116.310547	19392.681641
1115.210938	19370.287109
1114.110352	19550.197266
1113.010742	19361.878906
1111.910156	19512.173828
1110.809570	19358.017578
1109.708984	19165.316406
1108.607422	19192.941406
1107.506836	18848.263672
1106.405273	18753.386719
1105.303711	18880.917969
1104.201172	18808.755859
1103.098633	18763.841797
1101.996094	18698.537109
1100.893555	18612.855469
1099.791016	18459.210938
1098.687500	18165.132813
1097.583984	18245.007813
1096.480469	18200.265625
1095.376953	18071.748047
1094.272461	18371.208984
1093.167969	18312.880859
1092.063477	18288.523438
1090.958008	18006.232422
1089.853516	18153.875000
1088.748047	17982.554688
1087.642578	18053.253906
1086.536133	18013.148438
1085.430664	18237.500000
1084.324219	18183.810547
1083.217773	18177.583984
1082.110352	18191.689453
1081.003906	18345.794922
1079.896484	18082.152344
1078.789063	18290.384766
1077.680664	18435.337891
1076.573242	18618.580078
1075.464844	18174.640625
1074.356445	18443.558594
1073.247070	18568.050781
1072.138672	18701.503906
1071.029297	18433.724609
1069.919922	18632.490234
1068.809570	18189.121094
1067.700195	18477.943359
1066.589844	18631.529297
1065.479492	18397.818359
1064.368164	18501.832031
1063.257813	18446.025391
1062.146484	18504.984375
1061.035156	18233.259766
1059.922852	18310.226563
1058.811523	18337.693359
1057.699219	18396.617188
1056.586914	18228.527344
1055.473633	18071.744141
1054.361328	18380.033203
1053.248047	18396.216797
1052.134766	18549.363281
1051.021484	18332.027344
1049.907227	18332.496094
1048.792969	18357.644531
1047.678711	18364.833984
1046.564453	18605.287109
1045.449219	18778.357422
1044.333984	18940.140625
1043.218750	18767.871094
1042.103516	18920.617188
1040.987305	18938.867188
1039.871094	19230.384766
1038.754883	19172.412109
1037.638672	19257.757813
1036.521484	19302.773438
1035.404297	19309.718750
1034.287109	19580.689453
1033.169922	19502.560547
1032.051758	19724.162109
1030.933594	19945.666016
1029.815430	20122.357422
1028.697266	20079.931641
1027.578125	20276.623047
1026.458984	20296.734375
1025.339844	20292.263672
1024.220703	20491.007813
1023.100586	20182.857422
1021.980469	20430.640625
1020.860352	20796.589844
1019.740234	20821.009766
1018.619141	20965.873047
1017.498047	20905.496094
1016.376953	21014.597656
1015.255859	20918.566406
1014.133789	20978.583984
1013.011719	20887.054688
1011.889648	21060.660156
1010.767578	21031.511719
1009.644531	21227.273438
1008.521484	20857.484375
1007.398438	21135.544922
1006.274414	20688.052734
1005.151367	20734.652344
1004.027344	20456.486328
1002.902344	20427.501953
1001.778320	20349.619141
1000.653320	20116.171875
999.528320	20389.509766
998.403320	19851.767578
997.278320	19993.982422
996.152344	19825.218750
995.026367	19805.289063
993.900391	19938.533203
992.773438	19934.119141
991.646484	20104.994141
990.519531	19814.373047
989.392578	19940.837891
988.265625	19907.593750
987.137695	19969.689453
986.009766	20078.298828
984.881836	19940.894531
983.752930	20273.214844
982.624023	20248.785156
981.495117	20304.083984
980.366211	19929.851563
979.236328	20142.347656
978.106445	20084.767578
976.976563	20029.421875
975.846680	19781.658203
974.715820	19854.667969
973.585938	19971.863281
972.454102	19748.587891
971.323242	19554.140625
970.191406	19768.537109
969.060547	19768.562500
967.927734	19832.632813
966.795898	19907.712891
965.663086	20263.117188
964.530273	20660.294922
963.397461	20790.300781
962.264648	21264.394531
961.130859	21616.966797
959.997070	21759.898438
958.863281	22204.794922
957.729492	22038.949219
956.594727	22164.056641
955.459961	21802.212891
954.325195	21495.593750
953.189453	21387.302734
952.053711	20995.044922
950.917969	20589.751953
949.782227	20186.839844
948.646484	19898.513672
947.509766	19524.527344
946.373047	19414.611328
945.235352	19399.287109
944.098633	19034.449219
942.960938	19054.376953
941.823242	19043.533203
940.685547	19076.626953
939.546875	19164.609375
938.408203	19074.695313
937.269531	19219.714844
936.129883	19129.824219
934.991211	19228.681641
933.851563	19625.853516
932.711914	19707.005859
931.571289	19680.671875
930.431641	19643.386719
929.291016	19772.697266
928.149414	20072.875000
927.008789	20011.421875
925.867188	19998.183594
924.725586	19936.769531
923.583984	19744.019531
922.441406	19555.732422
921.299805	19297.496094
920.157227	19301.925781
919.013672	19008.861328
917.871094	18882.134766
916.727539	18762.021484
915.583984	18679.121094
914.439453	18545.992188
913.295898	18122.316406
912.151367	18507.095703
911.006836	18053.039063
909.861328	18112.312500
908.716797	17955.437500
907.571289	18154.384766
906.424805	18008.478516
905.279297	18312.037109
904.132813	18037.472656
902.986328	18066.132813
901.839844	18118.757813
900.692383	18047.121094
899.545898	18069.216797
898.398438	18302.626953
897.250000	18211.390625
896.102539	18216.007813
894.954102	18285.937500
893.805664	18349.302734
892.656250	18040.511719
891.507813	18108.253906
890.358398	18138.982422
889.208984	17993.546875
888.058594	18072.119141
886.908203	17965.886719
885.758789	17987.921875
884.607422	17875.234375
883.457031	17769.115234
882.305664	17838.953125
881.154297	17910.931641
880.002930	17655.083984
878.850586	17551.271484
877.698242	17566.845703
876.545898	17528.177734
875.393555	17402.771484
874.240234	17418.363281
873.086914	17449.123047
871.933594	17237.119141
870.780273	17540.929688
869.625977	17183.849609
868.471680	17303.429688
867.317383	17334.171875
866.162109	17239.332031
865.007813	16967.050781
863.852539	17073.582031
862.696289	17283.910156
861.541016	17100.478516
860.384766	17247.990234
859.228516	17211.664063
858.072266	17175.353516
856.915039	17372.445313
855.757813	17137.343750
854.600586	17204.750000
853.442383	16840.214844
852.285156	17274.697266
851.126953	17404.623047
849.968750	17398.527344
848.809570	17254.347656
847.650391	17379.871094
846.491211	17444.949219
845.332031	17130.517578
844.171875	17109.394531
843.012695	17142.158203
841.851563	17121.039063
840.691406	17283.033203
839.530273	17152.050781
838.369141	17264.439453
837.208008	17232.541016
836.046875	17112.416016
834.884766	17450.664063
833.722656	17233.734375
832.560547	17350.271484
831.397461	17262.474609
830.234375	17090.876953
829.071289	17215.958984
827.908203	17263.625000
826.744141	17386.458984
825.580078	17028.119141
824.416016	17097.265625
823.251953	16947.396484
822.086914	17160.333984
820.921875	17184.333984
819.756836	17195.449219
818.590820	17403.890625
817.425781	17086.849609
816.259766	17331.666016
815.092773	17139.103516
813.926758	17066.632813
812.759766	17257.720703
811.592773	17088.863281
810.424805	17078.554688
809.257813	17160.310547
808.089844	17323.371094
806.920898	17428.572266
805.752930	17088.697266
804.583984	17093.365234
803.415039	17083.058594
802.246094	17265.185547
801.076172	17141.550781
799.906250	17030.791016
798.736328	17091.013672
797.566406	17362.685547
796.395508	17328.832031
795.224609	17517.050781
794.053711	17820.457031
792.881836	18093.843750
791.710938	18420.447266
790.538086	18685.039063
789.366211	18915.380859
788.194336	18793.794922
787.021484	18930.207031
785.848633	18778.832031
784.674805	18542.291016
783.500977	18320.767578
782.327148	18054.619141
781.153320	17903.574219
779.979492	18008.060547
778.804688	17699.593750
777.629883	17912.597656
776.454102	17840.431641
775.279297	17642.808594
774.103516	17411.251953
772.927734	17987.660156
771.750977	17781.632813
770.575195	17826.445313
769.398438	17900.978516
768.220703	17661.123047
767.043945	17739.904297
765.866211	17916.308594
764.688477	17935.560547
763.510742	18192.474609
762.332031	18332.582031
761.153320	18252.031250
759.974609	18797.095703
758.794922	18977.246094
757.616211	19358.679688
756.436523	19530.140625
755.255859	20021.441406
754.076172	20675.615234
752.895508	21543.375000
751.714844	22332.400391
750.533203	23529.591797
749.352539	24868.021484
748.170898	26694.578125
746.988281	28740.283203
745.806641	31093.810547
744.624023	34228.550781
743.441406	38702.015625
742.258789	44699.261719
741.075195	52316.429688
739.891602	61465.796875
738.708008	72167.421875
737.523438	82794.468750
736.339844	91510.468750
735.155273	98006.507813
733.969727	100182.601563
732.785156	97035.507813
731.599609	91038.500000
730.414063	82807.117188
729.227539	72142.632813
728.041992	61889.796875
726.855469	52836.351563
725.667969	44334.769531
724.481445	38204.320313
723.293945	33559.023438
722.106445	30149.451172
720.918945	27547.519531
719.730469	25552.773438
718.541992	23954.429688
717.353516	22415.708984
716.164063	21321.361328
714.975586	20526.029297
713.786133	19888.691406
712.595703	19440.757813
711.406250	19135.880859
710.215820	18589.609375
709.025391	18448.849609
707.833984	18266.166016
706.642578	18075.169922
705.451172	18003.865234
704.259766	17915.810547
703.068359	18012.365234
701.875977	17869.826172
700.683594	17844.750000
699.490234	17962.208984
698.297852	18113.140625
697.104492	18284.949219
695.910156	18569.781250
694.716797	18944.523438
693.522461	19220.695313
692.328125	19664.183594
691.132813	19827.060547
689.938477	20142.583984
688.743164	20183.960938
687.547852	20352.875000
686.351563	20208.115234
685.155273	19904.568359
683.958984	19785.050781
682.762695	19262.371094
681.565430	18948.802734
680.368164	18503.820313
679.170898	18309.570313
677.973633	18163.416016
676.775391	18155.054688
675.577148	17977.707031
674.378906	17731.605469
673.179688	17760.882813
671.980469	17808.910156
670.781250	17919.443359
669.581055	17748.597656
668.381836	17877.843750
667.181641	17992.447266
665.980469	18059.099609
664.780273	17865.472656
663.579102	18217.287109
662.377930	18381.646484
661.175781	18506.396484
659.973633	18828.695313
658.771484	19269.378906
657.569336	19391.755859
656.367188	19645.027344
655.164063	20130.933594
653.960938	20514.806641
652.756836	20807.105469
651.552734	21221.794922
650.348633	21509.640625
649.144531	21967.562500
647.939453	22145.111328
646.735352	22328.798828
645.529297	22331.937500
644.324219	22517.570313
643.118164	22779.828125
641.912109	22776.636719
640.706055	22765.156250
639.499023	22923.574219
638.292969	22874.775391
637.084961	22956.468750
635.877930	23199.617188
634.669922	23034.865234
633.461914	23424.816406
632.253906	23409.054688
631.044922	23546.371094
629.836914	23716.712891
628.626953	23866.296875
627.417969	23685.070313
626.208008	23138.132813
624.998047	22944.757813
623.788086	22832.035156
622.577148	22448.818359
621.366211	21946.025391
620.155273	21746.906250
618.944336	21133.060547
617.732422	20517.433594
616.520508	19945.408203
615.308594	19520.074219
614.095703	19503.185547
612.882813	18962.708984
611.669922	18624.451172
610.457031	18004.070313
609.243164	17901.023438
608.029297	17765.072266
606.815430	17517.996094
605.600586	17268.974609
604.385742	17374.052734
603.170898	17153.982422
601.955078	17038.927734
600.740234	17034.980469
599.524414	17164.683594
598.307617	16959.251953
597.091797	17016.978516
595.875000	16949.339844
594.658203	16988.550781
593.440430	16647.798828
592.222656	16814.363281
591.004883	17009.589844
589.787109	17157.519531
588.568359	17069.417969
587.349609	16940.328125
586.130859	17137.390625
584.912109	17164.173828
583.692383	17301.642578
582.472656	17219.751953
581.251953	17273.130859
580.032227	17512.902344
578.811523	17609.197266
577.589844	17746.396484
576.369141	18211.070313
575.147461	18225.267578
573.925781	18390.871094
572.703125	18587.083984
571.481445	18676.853516
570.258789	19112.138672
569.035156	19242.626953
567.812500	19620.353516
566.588867	19429.861328
565.365234	19603.080078
564.140625	20041.726563
562.916992	20000.322266
561.692383	19956.896484
560.466797	19703.271484
559.242188	19672.173828
558.016602	19690.050781
556.791016	19518.240234
555.564453	19305.728516
554.337891	19207.474609
553.111328	18980.863281
551.884766	18899.029297
550.657227	18450.542969
549.429688	18780.277344
548.202148	18535.646484
546.974609	18399.021484
545.746094	18634.914063
544.517578	18475.943359
543.288086	18471.656250
542.058594	18701.261719
540.829102	18759.955078
539.599609	18615.330078
538.370117	19019.529297
537.139648	18791.597656
535.909180	18541.425781
534.677734	18551.337891
533.446289	18132.798828
532.214844	18390.470703
530.983398	17996.515625
529.750977	17736.667969
528.519531	17616.916016
527.286133	17399.865234
526.053711	17251.857422
524.820313	17203.253906
523.586914	17442.472656
522.353516	17306.712891
521.119141	17395.882813
519.884766	17187.281250
518.650391	17211.638672
517.415039	17069.982422
516.179688	17084.234375
514.944336	17114.666016
513.708984	16780.941406
