#Wave		#Intensity
1585.210938	6064.284180
1584.209961	6089.260742
1583.208984	6107.976074
1582.208008	5857.049316
1581.206055	5965.664063
1580.204102	6184.039063
1579.202148	6115.391113
1578.200195	6084.189941
1577.198242	6090.411621
1576.195313	6074.188965
1575.192383	6122.790527
1574.189453	6119.029785
1573.186523	6082.875000
1572.182617	6138.918457
1571.178711	6050.464355
1570.174805	6004.383789
1569.170898	6013.100098
1568.166992	6054.174316
1567.162109	6062.875977
1566.158203	5865.040527
1565.153320	6067.828613
1564.147461	5967.079102
1563.142578	6097.644043
1562.136719	6036.710449
1561.130859	6157.263672
1560.125000	6061.548828
1559.119141	6187.015625
1558.113281	6133.565430
1557.106445	6410.471680
1556.099609	6409.144531
1555.092773	6437.609863
1554.084961	6485.920410
1553.078125	6313.342773
1552.070313	6639.546875
1551.062500	6576.156250
1550.054688	6554.953613
1549.045898	6489.126953
1548.038086	6450.597168
1547.029297	6424.475586
1546.020508	6425.623535
1545.011719	6340.056641
1544.001953	6306.542480
1542.992188	6218.558105
1541.982422	6125.658203
1540.972656	6151.620605
1539.962891	6034.022461
1538.952148	6055.043457
1537.942383	5942.461426
1536.931641	5807.664551
1535.919922	5863.339844
1534.909180	5958.550781
1533.897461	5925.182129
1532.886719	5859.698730
1531.874023	5920.257813
1530.862305	5946.206055
1529.850586	5907.927246
1528.837891	5899.295898
1527.825195	5903.011719
1526.812500	5924.004883
1525.799805	5952.392090
1524.786133	5884.541992
1523.772461	5816.719727
1522.758789	5961.026855
1521.745117	5838.969238
1520.731445	5776.128418
1519.716797	5915.423340
1518.702148	5894.484375
1517.687500	5908.046387
1516.672852	5882.190430
1515.657227	5841.568848
1514.642578	5887.141113
1513.626953	5898.230469
1512.610352	6002.839844
1511.594727	5895.787598
1510.579102	5946.229980
1509.562500	5952.377441
1508.545898	5742.116699
1507.529297	5755.679199
1506.511719	5931.472656
1505.494141	5873.718750
1504.477539	6027.299805
1503.458984	5959.723145
1502.441406	5901.998535
1501.423828	5800.096680
1500.405273	5987.936035
1499.386719	5969.513672
1498.368164	6017.357910
1497.348633	6011.204102
1496.330078	6083.549805
1495.310547	6008.713379
1494.291016	6088.385254
1493.271484	6094.478027
1492.250977	6085.862305
1491.231445	6189.972656
1490.210938	6105.390137
1489.190430	6033.089355
1488.168945	5985.308594
1487.148438	6096.697754
1486.126953	5995.067383
1485.105469	6167.594238
1484.083984	5977.900391
1483.061523	6338.734863
1482.040039	6217.570313
1481.017578	6250.517090
1479.995117	6205.212402
1478.971680	6240.592285
1477.949219	6359.049805
1476.925781	6455.467285
1475.902344	6427.256836
1474.878906	6384.403320
1473.855469	6654.128418
1472.831055	6586.831055
1471.806641	6487.830078
1470.782227	6740.282227
1469.757813	7043.866211
1468.733398	7057.041016
1467.708008	7106.792969
1466.682617	7188.222168
1465.657227	7528.027344
1464.631836	7638.582520
1463.605469	7705.228516
1462.579102	7942.388184
1461.552734	8225.729492
1460.526367	8406.670898
1459.500000	8370.838867
1458.472656	8283.901367
1457.445313	8287.048828
1456.417969	8253.696289
1455.390625	8127.911133
1454.362305	7861.105957
1453.334961	7667.364258
1452.306641	7663.340820
1451.277344	7389.504883
1450.249023	7237.294434
1449.219727	7170.188477
1448.191406	7056.954102
1447.162109	6778.611816
1446.131836	6925.326172
1445.102539	6763.657227
1444.072266	6801.087891
1443.041992	6746.287109
1442.011719	6766.721191
1440.981445	6867.195313
1439.950195	6501.986816
1438.918945	6827.970703
1437.887695	6550.192871
1436.856445	6408.256836
1435.825195	6474.774414
1434.792969	6538.840820
1433.760742	6515.682129
1432.728516	6507.062500
1431.696289	6275.697266
1430.663086	6434.156738
1429.629883	6292.448730
1428.596680	6206.451660
1427.563477	6144.681641
1426.530273	6131.310547
1425.496094	6050.235840
1424.461914	6073.153320
1423.427734	5931.694824
1422.393555	6118.959473
1421.358398	6066.947266
1420.323242	6046.359375
1419.288086	6064.422363
1418.252930	6077.647949
1417.217773	6042.584473
1416.181641	5971.331543
1415.145508	5967.674805
1414.109375	5976.083008
1413.073242	6206.402832
1412.036133	6267.812500
1411.000000	6249.629395
1409.962891	6339.931152
1408.924805	6374.762207
1407.887695	6696.322754
1406.849609	6653.972656
1405.812500	7025.920898
1404.773438	6985.927246
1403.735352	7167.449707
1402.697266	7370.559570
1401.658203	7340.144043
1400.619141	7485.386230
1399.580078	7373.167969
1398.540039	7455.809570
1397.500977	7658.645508
1396.460938	7397.405762
1395.420898	7552.096680
1394.380859	7430.366699
1393.339844	7351.934082
1392.298828	7338.389648
1391.257813	7339.260254
1390.216797	7080.812012
1389.175781	7144.150391
1388.133789	7049.056152
1387.091797	7306.740234
1386.049805	7365.191895
1385.007813	7485.981934
1383.964844	7753.004395
1382.922852	7912.023438
1381.879883	8147.682617
1380.835938	8256.223633
1379.792969	8479.730469
1378.749023	8837.295898
1377.706055	8751.622070
1376.661133	8745.003906
1375.617188	8855.698242
1374.573242	8944.803711
1373.528320	9091.304688
1372.483398	8809.472656
1371.438477	8719.124023
1370.392578	8748.391602
1369.347656	8517.019531
1368.301758	8209.244141
1367.255859	8121.484375
1366.208984	8107.837402
1365.163086	7917.404297
1364.116211	7820.204590
1363.069336	7711.104980
1362.022461	7504.159180
1360.974609	7473.943848
1359.927734	7512.951172
1358.879883	7406.391113
1357.832031	7481.178711
1356.783203	7510.618164
1355.735352	7525.737793
1354.686523	7528.929688
1353.637695	7684.668945
1352.588867	7795.063965
1351.539063	7962.594238
1350.490234	8270.596680
1349.440430	8399.850586
1348.390625	8667.152344
1347.339844	8729.612305
1346.290039	9096.695313
1345.239258	9330.367188
1344.188477	9568.699219
1343.137695	9954.402344
1342.085938	10328.052734
1341.034180	10404.347656
1339.982422	10416.426758
1338.930664	10552.083984
1337.878906	10922.916992
1336.826172	10706.820313
1335.773438	10939.708008
1334.720703	10892.293945
1333.667969	10730.942383
1332.614258	10847.369141
1331.561523	10299.276367
1330.507813	10294.741211
1329.453125	10221.415039
1328.399414	10174.207031
1327.344727	9697.846680
1326.290039	9605.725586
1325.235352	9485.201172
1324.180664	9322.073242
1323.125000	9225.348633
1322.070313	8958.123047
1321.014648	8873.355469
1319.958008	8805.195313
1318.902344	8542.959961
1317.845703	8382.598633
1316.789063	8541.731445
1315.732422	8133.045410
1314.675781	8050.919434
1313.618164	8001.931641
1312.560547	7910.410156
1311.502930	7648.744141
1310.445313	7592.781250
1309.386719	7636.072266
1308.329102	7412.421875
1307.270508	7292.777832
1306.210938	7312.491699
1305.152344	7289.705078
1304.092773	7092.275879
1303.033203	7114.377441
1301.973633	7023.229492
1300.914063	7007.596680
1299.853516	6819.823730
1298.792969	6806.597168
1297.732422	6805.161621
1296.671875	6794.299316
1295.611328	6538.398438
1294.549805	6626.534668
1293.488281	6568.611816
1292.426758	6531.904785
1291.364258	6518.754883
1290.302734	6566.806152
1289.240234	6492.470703
1288.177734	6538.153320
1287.114258	6525.011230
1286.051758	6638.866211
1284.988281	6510.498535
1283.924805	6485.615234
1282.861328	6695.764160
1281.796875	6551.016113
1280.732422	6791.600586
1279.667969	6879.416504
1278.603516	6997.721191
1277.539063	7141.800293
1276.473633	7241.220703
1275.408203	7577.619141
1274.342773	7519.706055
1273.277344	7611.944336
1272.210938	7718.214355
1271.145508	7489.139648
1270.079102	7475.832520
1269.011719	7338.311523
1267.945313	7371.906250
1266.877930	7103.269043
1265.810547	6970.597168
1264.743164	6833.297363
1263.674805	6770.975586
1262.607422	6561.210938
1261.539063	6449.826660
1260.470703	6434.420410
1259.401367	6309.073242
1258.333008	6338.139648
1257.263672	6392.914551
1256.194336	6181.155762
1255.125000	6217.241211
1254.054688	6094.407227
1252.985352	6116.477051
1251.915039	6082.477051
1250.843750	6160.586914
1249.773438	6107.912109
1248.702148	6036.584961
1247.630859	6133.323730
1246.559570	5898.686523
1245.488281	5932.425781
1244.416016	5973.147461
1243.343750	5913.581543
1242.271484	6042.880371
1241.199219	5901.743652
1240.125977	6112.551758
1239.053711	5969.129883
1237.980469	6109.951660
1236.906250	6013.167969
1235.833008	6014.216309
1234.758789	5933.788086
1233.684570	6007.001953
1232.610352	6094.145020
1231.536133	6104.479492
1230.460938	5998.513672
1229.385742	6032.116699
1228.310547	6135.453125
1227.235352	6280.583984
1226.159180	5991.079102
1225.083008	6068.798828
1224.006836	6151.130371
1222.930664	6138.207031
1221.853516	5983.649414
1220.777344	6140.231934
1219.700195	6080.897949
1218.622070	6009.986816
1217.544922	6062.063477
1216.466797	6067.728027
1215.388672	5962.079102
1214.310547	5977.035645
1213.232422	6015.165039
1212.153320	6120.484863
1211.074219	6112.226563
1209.995117	6108.604004
1208.916016	6109.614746
1207.835938	6224.084473
1206.755859	6132.468262
1205.675781	6165.875000
1204.595703	6037.285645
1203.514648	6167.865234
1202.434570	6057.833496
1201.353516	6199.915039
1200.271484	6110.730957
1199.190430	6169.523438
1198.108398	6124.292969
1197.026367	6111.428711
1195.944336	6117.050293
1194.862305	6023.357910
1193.779297	6121.357910
1192.696289	5923.816895
1191.613281	5941.012695
1190.530273	5914.355957
1189.446289	5735.441895
1188.362305	5750.358398
1187.278320	5839.063477
1186.194336	5720.225098
1185.109375	5689.031738
1184.024414	5706.248535
1182.939453	5603.642090
1181.854492	5703.799805
1180.768555	5592.024902
1179.683594	5590.824219
1178.597656	5532.069824
1177.510742	5586.122070
1176.424805	5566.512695
1175.337891	5597.526367
1174.250977	5479.014648
1173.164063	5477.837402
1172.077148	5580.123047
1170.989258	5647.884277
1169.901367	5559.338379
1168.813477	5592.608398
1167.724609	5547.758789
1166.636719	5636.137207
1165.547852	5494.854980
1164.458984	5569.431152
1163.369141	5604.956055
1162.280273	5509.665527
1161.190430	5536.009766
1160.100586	5605.923828
1159.010742	5643.701660
1157.919922	5681.462891
1156.829102	5620.639648
1155.738281	5642.346191
1154.647461	5622.799805
1153.555664	5653.658691
1152.464844	5537.924805
1151.373047	5731.363281
1150.280273	5759.888184
1149.188477	5685.403809
1148.095703	5791.727539
1147.002930	5783.614258
1145.910156	5846.411133
1144.817383	5721.659668
1143.723633	5830.168457
1142.629883	5755.762207
1141.536133	5756.804199
1140.441406	5773.839355
1139.347656	5752.032715
1138.252930	5556.660156
1137.158203	5685.611816
1136.062500	5606.764160
1134.967773	5692.282715
1133.872070	5697.896973
1132.776367	5694.383301
1131.679688	5695.432129
1130.583984	5639.469727
1129.487305	5620.009766
1128.390625	5705.411133
1127.292969	5667.712891
1126.196289	5748.509277
1125.098633	5656.146484
1124.000977	5707.302246
1122.903320	5760.712891
1121.804688	5745.805664
1120.706055	5714.972656
1119.607422	5695.529785
1118.508789	5694.294922
1117.409180	5565.687988
1116.310547	5646.344727
1115.210938	5563.273438
1114.110352	5605.253418
1113.010742	5749.478516
1111.910156	5636.900879
1110.809570	5662.935547
1109.708984	5636.724121
1108.607422	5594.630371
1107.506836	5563.904297
1106.405273	5596.738770
1105.303711	5577.369629
1104.201172	5530.786133
1103.098633	5608.966797
1101.996094	5553.324707
1100.893555	5431.960938
1099.791016	5426.246582
1098.687500	5443.194824
1097.583984	5496.385254
1096.480469	5590.324219
1095.376953	5466.817383
1094.272461	5596.946777
1093.167969	5462.173340
1092.063477	5354.615234
1090.958008	5455.268555
1089.853516	5555.877441
1088.748047	5382.779785
1087.642578	5358.994629
1086.536133	5387.215332
1085.430664	5530.693359
1084.324219	5491.072266
1083.217773	5498.911133
1082.110352	5470.606934
1081.003906	5557.483887
1079.896484	5517.889648
1078.789063	5561.830078
1077.680664	5481.629883
1076.573242	5448.845215
1075.464844	5495.026367
1074.356445	5482.549805
1073.247070	5537.721191
1072.138672	5439.577148
1071.029297	5544.315918
1069.919922	5443.958984
1068.809570	5445.021484
1067.700195	5556.446289
1066.589844	5460.654785
1065.479492	5484.224609
1064.368164	5471.770508
1063.257813	5484.075195
1062.146484	5597.617188
1061.035156	5391.700195
1059.922852	5613.157227
1058.811523	5530.986328
1057.699219	5462.338867
1056.586914	5634.190430
1055.473633	5446.463867
1054.361328	5555.343750
1053.248047	5441.830566
1052.134766	5483.300293
1051.021484	5455.158691
1049.907227	5617.805664
1048.792969	5668.184082
1047.678711	5482.977539
1046.564453	5448.130371
1045.449219	5588.209473
1044.333984	5600.434570
1043.218750	5520.752930
1042.103516	5562.119141
1040.987305	5498.163574
1039.871094	5530.555664
1038.754883	5598.765137
1037.638672	5539.320313
1036.521484	5645.551758
1035.404297	5539.123047
1034.287109	5730.333496
1033.169922	5637.354004
1032.051758	5839.640625
1030.933594	5581.208496
1029.815430	5615.749512
1028.697266	5703.916504
1027.578125	5792.044434
1026.458984	5763.959961
1025.339844	5733.653809
1024.220703	5707.826660
1023.100586	5802.571777
1021.980469	5828.078613
1020.860352	5795.551270
1019.740234	5834.434082
1018.619141	5788.535156
1017.498047	5898.766602
1016.376953	5837.264648
1015.255859	5880.560547
1014.133789	5839.146484
1013.011719	5786.609863
1011.889648	5789.788086
1010.767578	5866.461914
1009.644531	5785.004883
1008.521484	5897.265137
1007.398438	5855.899414
1006.274414	5945.840332
1005.151367	5877.784180
1004.027344	5865.364258
1002.902344	5775.117188
1001.778320	5918.353027
1000.653320	5910.375977
999.528320	5806.843750
998.403320	5781.119141
997.278320	5744.299316
996.152344	5736.365723
995.026367	5652.944336
993.900391	5702.749023
992.773438	5812.453613
991.646484	5717.975098
990.519531	5681.214844
989.392578	5538.012695
988.265625	5687.567383
987.137695	5752.813477
986.009766	5603.040039
984.881836	5714.809082
983.752930	5660.372070
982.624023	5641.397461
981.495117	5777.440918
980.366211	5769.517090
979.236328	5657.564941
978.106445	5711.633301
976.976563	5559.917969
975.846680	5671.494141
974.715820	5670.234863
973.585938	5611.490234
972.454102	5599.190918
971.323242	5622.257324
970.191406	5742.531250
969.060547	5577.787109
967.927734	5569.921875
966.795898	5683.501953
965.663086	5666.785156
964.530273	5731.736816
963.397461	5737.081543
962.264648	5907.879395
961.130859	5860.247070
959.997070	5971.402832
958.863281	6062.666992
957.729492	5992.989746
956.594727	6004.876953
955.459961	6040.993164
954.325195	5982.378418
953.189453	5943.608887
952.053711	5814.588379
950.917969	5771.470215
949.782227	5789.989746
948.646484	5636.885742
947.509766	5695.020508
946.373047	5682.754395
945.235352	5593.538086
944.098633	5530.739746
942.960938	5456.979980
941.823242	5693.064941
940.685547	5606.120605
939.546875	5701.504395
938.408203	5603.617188
937.269531	5694.567383
936.129883	5774.502930
934.991211	5702.995117
933.851563	5721.464844
932.711914	5821.079102
931.571289	5883.369629
930.431641	5796.553223
929.291016	5766.762695
928.149414	5756.707520
927.008789	5764.183105
925.867188	5778.226074
924.725586	5761.604004
923.583984	5782.208496
922.441406	5651.768555
921.299805	5773.054688
920.157227	5603.291016
919.013672	5639.222656
917.871094	5620.463867
916.727539	5457.406250
915.583984	5543.622559
914.439453	5468.073730
913.295898	5401.298340
912.151367	5485.282715
911.006836	5436.004395
909.861328	5430.418457
908.716797	5514.338379
907.571289	5462.902832
906.424805	5474.769531
905.279297	5401.548828
904.132813	5352.353027
902.986328	5495.069824
901.839844	5363.030273
900.692383	5468.626465
899.545898	5517.517578
898.398438	5409.525879
897.250000	5506.326172
896.102539	5650.991211
894.954102	5588.760742
893.805664	5546.147461
892.656250	5551.429199
891.507813	5474.031738
890.358398	5498.902832
889.208984	5421.550781
888.058594	5572.526367
886.908203	5469.106934
885.758789	5543.939941
884.607422	5405.808105
883.457031	5385.041016
882.305664	5362.110352
881.154297	5376.102051
880.002930	5440.014648
878.850586	5284.697266
877.698242	5411.525879
876.545898	5323.533203
875.393555	5469.814453
874.240234	5347.153809
873.086914	5350.283691
871.933594	5424.935059
870.780273	5406.376465
869.625977	5231.845215
868.471680	5321.633301
867.317383	5420.041504
866.162109	5340.880859
865.007813	5287.728516
863.852539	5412.043945
862.696289	5382.696777
861.541016	5379.318359
860.384766	5231.054199
859.228516	5353.106445
858.072266	5397.288574
856.915039	5365.814453
855.757813	5317.070313
854.600586	5335.308594
853.442383	5323.304688
852.285156	5371.759277
851.126953	5556.182617
849.968750	5526.870605
848.809570	5327.120605
847.650391	5479.070313
846.491211	5294.517090
845.332031	5377.408203
844.171875	5333.078125
843.012695	5456.870117
841.851563	5317.735352
840.691406	5450.090332
839.530273	5343.324707
838.369141	5339.960938
837.208008	5306.460449
836.046875	5397.803711
834.884766	5248.109863
833.722656	5427.625977
832.560547	5413.490723
831.397461	5216.587402
830.234375	5318.594727
829.071289	5336.731934
827.908203	5378.498047
826.744141	5295.641113
825.580078	5356.726563
824.416016	5398.458008
823.251953	5236.217285
822.086914	5252.199707
820.921875	5364.739746
819.756836	5318.467773
818.590820	5282.940918
817.425781	5251.719238
816.259766	5310.556152
815.092773	5191.459473
813.926758	5278.141602
812.759766	5326.218750
811.592773	5224.334473
810.424805	5368.769043
809.257813	5303.317871
808.089844	5252.879395
806.920898	5328.726074
805.752930	5252.629395
804.583984	5232.182617
803.415039	5241.685059
802.246094	5388.020996
801.076172	5337.629395
799.906250	5199.638184
798.736328	5221.957031
797.566406	5113.959961
796.395508	5217.443359
795.224609	5406.286133
794.053711	5419.997559
792.881836	5403.823242
791.710938	5432.463867
790.538086	5397.094238
789.366211	5506.767090
788.194336	5518.305176
787.021484	5468.016113
785.848633	5364.466797
784.674805	5354.720215
783.500977	5445.102539
782.327148	5480.067871
781.153320	5412.807617
779.979492	5305.129395
778.804688	5318.817383
777.629883	5381.439941
776.454102	5333.408691
775.279297	5323.683105
774.103516	5260.800781
772.927734	5467.942383
771.750977	5430.560547
770.575195	5337.946289
769.398438	5340.975586
768.220703	5301.522949
767.043945	5389.499512
765.866211	5507.157715
764.688477	5263.928223
763.510742	5402.780762
762.332031	5382.451660
761.153320	5294.255859
759.974609	5375.748535
758.794922	5382.999512
757.616211	5555.578613
756.436523	5518.282227
755.255859	5663.207520
754.076172	5638.611328
752.895508	5650.027344
751.714844	5841.400391
750.533203	5998.818359
749.352539	5950.887207
748.170898	6243.615723
746.988281	6557.361816
745.806641	6957.670898
744.624023	7471.968262
743.441406	8106.518066
742.258789	9154.990234
741.075195	10614.989258
739.891602	11949.687500
738.708008	13551.983398
737.523438	15472.365234
736.339844	16572.828125
735.155273	17592.589844
733.969727	18265.849609
732.785156	17997.976563
731.599609	17038.478516
730.414063	15756.819336
729.227539	13963.498047
728.041992	12301.666016
726.855469	10933.475586
725.667969	9843.978516
724.481445	8759.193359
723.293945	7944.421387
722.106445	7344.745117
720.918945	6943.178711
719.730469	6684.877930
718.541992	6395.140625
717.353516	6206.488770
716.164063	6120.955078
714.975586	5787.398438
713.786133	5676.778809
712.595703	5606.132813
711.406250	5495.604492
710.215820	5477.539063
709.025391	5432.184570
707.833984	5388.949219
706.642578	5387.709961
705.451172	5386.471191
704.259766	5316.002930
703.068359	5342.045898
701.875977	5334.526367
700.683594	5301.853027
699.490234	5271.290039
698.297852	5211.404297
697.104492	5300.289063
695.910156	5428.927734
694.716797	5442.336426
693.522461	5476.673828
692.328125	5462.854492
691.132813	5572.502930
689.938477	5602.601074
688.743164	5687.066406
687.547852	5744.308105
686.351563	5644.725098
685.155273	5528.465820
683.958984	5474.950684
682.762695	5599.040527
681.565430	5424.387207
680.368164	5381.372559
679.170898	5359.254883
677.973633	5318.361816
676.775391	5308.788574
675.577148	5305.478516
674.378906	5306.341309
673.179688	5328.056641
671.980469	5351.846191
670.781250	5367.287109
669.581055	5251.434570
668.381836	5391.895996
667.181641	5469.803711
665.980469	5418.562988
664.780273	5398.575195
663.579102	5378.595703
662.377930	5562.565430
661.175781	5611.214355
659.973633	5820.005371
658.771484	5542.078125
657.569336	5746.629395
656.367188	5728.673828
655.164063	5791.773438
653.960938	6039.755371
652.756836	5932.424316
651.552734	6028.659180
650.348633	5998.199707
649.144531	6038.329102
647.939453	6070.138672
646.735352	6294.887207
645.529297	6110.894531
644.324219	6090.818359
643.118164	6155.757813
641.912109	6228.958496
640.706055	6248.242676
639.499023	6186.713379
638.292969	6135.568848
637.084961	6105.157227
635.877930	6198.987305
634.669922	6158.224609
633.461914	6456.879883
632.253906	6445.041992
631.044922	6524.225098
629.836914	6491.695313
628.626953	6415.760254
627.417969	6412.208984
626.208008	6255.727539
624.998047	6248.082031
623.788086	6199.125488
622.577148	6139.865723
621.366211	6057.920410
620.155273	5959.498535
618.944336	5914.780273
617.732422	5750.411133
616.520508	5573.740234
615.308594	5654.943848
614.095703	5651.573242
612.882813	5545.134277
611.669922	5479.961914
610.457031	5421.001465
609.243164	5411.506348
608.029297	5358.766113
606.815430	5456.357422
605.600586	5428.333008
604.385742	5369.450684
603.170898	5279.731445
601.955078	5412.219727
600.740234	5347.210938
599.524414	5339.803711
598.307617	5375.568848
597.091797	5273.619141
595.875000	5247.740723
594.658203	5195.168945
593.440430	5214.502930
592.222656	5367.291016
591.004883	5238.772949
589.787109	5184.198242
588.568359	5203.515137
587.349609	5317.186523
586.130859	5223.663574
584.912109	5220.402344
583.692383	5391.388672
582.472656	5304.060547
581.251953	5438.065430
580.032227	5475.726563
578.811523	5374.102539
577.589844	5403.569824
576.369141	5400.270020
575.147461	5452.230469
573.925781	5436.642578
572.703125	5558.123047
571.481445	5667.275391
570.258789	5565.769043
569.035156	5521.548828
567.812500	5573.406250
566.588867	5647.716309
565.365234	5679.091797
564.140625	5728.833496
562.916992	5776.509766
561.692383	5613.897949
560.466797	5702.396973
559.242188	5613.333984
558.016602	5628.351563
556.791016	5578.096680
555.564453	5533.982422
554.337891	5593.855957
553.111328	5521.224121
551.884766	5491.416016
550.657227	5577.739746
549.429688	5494.978027
548.202148	5512.028320
546.974609	5555.535645
545.746094	5539.999512
544.517578	5530.574219
543.288086	5496.741699
542.058594	5589.022949
540.829102	5583.658691
539.599609	5647.416016
538.370117	5605.456543
537.139648	5632.602539
535.909180	5604.885742
534.677734	5640.143066
533.446289	5581.978516
532.214844	5471.058105
530.983398	5427.166504
529.750977	5356.916016
528.519531	5392.188477
527.286133	5397.020996
526.053711	5493.098633
524.820313	5418.842285
523.586914	5470.280273
522.353516	5677.720215
521.119141	5601.445801
519.884766	5547.485840
518.650391	5410.529297
517.415039	5516.567871
516.179688	5446.472656
514.944336	5297.493164
513.708984	5379.207031
