#Wave	#Intensity
2109.007813	9280.141602
2107.496094	9058.516602
2105.984375	9135.928711
2104.470703	9198.427734
2102.958984	8996.445313
2101.445313	9049.033203
2099.933594	9085.077148
2098.419922	8979.053711
2096.90625	8973.811523
2095.390625	8983.431641
2093.876953	8928.670898
2092.361328	9045.569336
2090.845703	8753.21875
2089.332031	8845.360352
2087.814453	8868.193359
2086.298828	8923.994141
2084.783203	8706.107422
2083.265625	8630.0625
2081.748047	8647.977539
2080.230469	8743.318359
2078.712891	8558.602539
2077.195313	8601.223633
2075.677734	8642.180664
2074.158203	8534.97168
2072.638672	8557.821289
2071.119141	8592.179688
2069.599609	8626.523438
2068.080078	8644.405273
2066.560547	8522.511719
2065.039063	8292.169922
2063.517578	8458.037109
2061.996094	8582.751953
2060.474609	8428.119141
2058.953125	8403.314453
2057.429688	8316.116211
2055.908203	8439.112305
2054.384766	8338.8125
2052.861328	8346.871094
2051.337891	8386.100586
2049.814453	8325.24707
2048.289063	8402.1875
2046.765625	8324.958984
2045.240234	8447.768555
2043.714844	8291.889648
2042.189453	8422.847656
2040.664063	8293.253906
2039.136719	8296.392578
2037.609375	8456.742188
2036.083984	8387.803711
2034.556641	8449.849609
2033.029297	8340.02832
2031.5	8367.696289
2029.972656	8343.004883
2028.443359	8382.109375
2026.914063	8363.966797
2025.386719	8177.442871
2023.855469	8373.467773
2022.326172	8286.704102
2020.796875	8293.103516
2019.265625	8317.467773
2017.734375	8314.058594
2016.203125	8243.708008
2014.671875	8212.566406
2013.140625	8329.952148
2011.607422	8320.016602
2010.076172	8311.716797
2008.542969	8124.009766
2007.009766	8161.413086
2005.476563	8203.691406
2003.943359	8228.021484
2002.408203	8372.932617
2000.875	8319.011719
1999.339844	8212.988281
1997.804688	8320.352539
1996.269531	8373.94043
1994.732422	8228.90332
1993.197266	8323.175781
1991.660156	8163.566895
1990.123047	8171.589844
1988.585938	8228.404297
1987.048828	8290.072266
1985.511719	8161.496582
1983.972656	8284.919922
1982.435547	8283.157227
1980.896484	8187.15918
1979.357422	8248.770508
1977.818359	8198.293945
1976.279297	8313.458984
1974.738281	8168.834961
1973.197266	8326.155273
1971.658203	8227.025391
1970.117188	8311.260742
1968.576172	8257.59082
1967.033203	8171.510742
1965.492188	8234.62793
1963.949219	8208.564453
1962.40625	8367.262695
1960.863281	8294.193359
1959.320313	8342.650391
1957.777344	8264.758789
1956.232422	8334.251953
1954.689453	8327.625977
1953.144531	8348.518555
1951.599609	8340.274414
1950.054688	8336.886719
1948.507813	8372.321289
1946.962891	8315.561523
1945.416016	8176.366699
1943.869141	8200.496094
1942.322266	8208.455078
1940.775391	8188.94043
1939.228516	8056.351074
1937.679688	8132.169434
1936.132813	8280.621094
1934.583984	8275.637695
1933.035156	8299.708984
1931.486328	8289.881836
1929.935547	8162.278809
1928.386719	8121.835938
1926.835938	8171.722656
1925.285156	8179.666016
1923.734375	8142.46875
1922.183594	8242.282227
1920.632813	8246.982422
1919.080078	8113.131836
1917.527344	8167.788086
1915.976563	8083.931152
1914.423828	8291.520508
1912.869141	8143.286133
1911.316406	8162.483887
1909.761719	8239.59668
1908.208984	8167.072266
1906.654297	8234.500977
1905.099609	8121.80957
1903.544922	8235.839844
1901.988281	8094.26416
1900.433594	8209.858398
1898.876953	8153.497559
1897.320313	8228.873047
1895.763672	8214.285156
1894.207031	8352.234375
1892.648438	8117.70752
1891.091797	8242.77832
1889.533203	8241.035156
1887.974609	8234.480469
1886.416016	8186.226563
1884.857422	8279.105469
1883.298828	8235.671875
1881.738281	8171.418457
1880.177734	8062.321777
1878.617188	8116.694336
1877.056641	8214.293945
1875.496094	8270.211914
1873.935547	8100.34082
1872.373047	8253.910156
1870.810547	8205.751953
1869.248047	8076.004883
1867.685547	8066.299316
1866.123047	8174.959473
1864.560547	8270.780273
1862.996094	8099.558594
1861.431641	8291.262695
1859.867188	8198.416992
1858.302734	8201.478516
1856.738281	8276.423828
1855.171875	8277.870117
1853.607422	8322.427734
1852.041016	8263.198242
1850.474609	8101.841797
1848.908203	8317.155273
1847.341797	8194.145508
1845.773438	8273.764648
1844.207031	8404.382813
1842.638672	8217.654297
1841.070313	8209.542969
1839.501953	8381.527344
1837.931641	8175.800781
1836.363281	8250.541992
1834.792969	8269.504883
1833.222656	8239.095703
1831.652344	8270.789063
1830.082031	8296.101563
1828.511719	8120.887695
1826.941406	8346.694336
1825.369141	8216.083008
1823.796875	8284.325195
1822.224609	8218.973633
1820.652344	8228.366211
1819.078125	8434.837891
1817.505859	8301.166016
1815.931641	8366.138672
1814.357422	8346.900391
1812.783203	8359.429688
1811.208984	8287.805664
1809.634766	8211.449219
1808.058594	8273.196289
1806.484375	8269.862305
1804.908203	8444.202148
1803.332031	8275.886719
1801.753906	8353.423828
1800.177734	8261.293945
1798.601563	8300.759766
1797.023438	8189.663574
1795.445313	8248.139648
1793.867188	8400.046875
1792.289063	8358.680664
1790.708984	8329.999023
1789.130859	8564.108398
1787.550781	8369.212891
1785.970703	8433.90332
1784.390625	8349.857422
1782.810547	8213.651367
1781.228516	8336.842773
1779.646484	8521.640625
1778.066406	8439.226563
1776.484375	8440.604492
1774.902344	8453.041016
1773.318359	8539.716797
1771.736328	8525.27832
1770.152344	8378.208984
1768.568359	8419.0625
1766.984375	8384.138672
1765.400391	8431.285156
1763.816406	8517.853516
1762.230469	8465.578125
1760.646484	8403.863281
1759.060547	8559.754883
1757.474609	8523.266602
1755.888672	8575.048828
1754.300781	8440.879883
1752.714844	8558.822266
1751.126953	8534.962891
1749.539063	8479.619141
1747.951172	8479.401367
1746.363281	8567.327148
1744.775391	8713.441406
1743.185547	8518.078125
1741.595703	8767.958008
1740.007813	8769.25
1738.416016	8753.244141
1736.826172	8712.092773
1735.236328	8980.579102
1733.644531	8793.260742
1732.052734	8772.548828
1730.462891	8800.536133
1728.869141	8833.222656
1727.277344	8810.943359
1725.685547	9038.25293
1724.091797	8884.113281
1722.498047	9161.519531
1720.904297	9021.536133
1719.310547	9123.138672
1717.716797	9151.000977
1716.121094	9086.356445
1714.527344	9038.979492
1712.931641	9185.933594
1711.335938	9444.061523
1709.740234	9399.769531
1708.142578	9425.967773
1706.546875	9389.526367
1704.949219	9522.160156
1703.351563	9620.306641
1701.753906	9505.609375
1700.15625	9455.100586
1698.558594	9520.351563
1696.958984	9615.285156
1695.359375	9708.614258
1693.759766	9778.458008
1692.160156	9746.694336
1690.560547	9911.804688
1688.960938	9895.645508
1687.359375	10007.553711
1685.757813	9997.625
1684.15625	10034.532227
1682.554688	10151.021484
1680.953125	10240.932617
1679.349609	10365.126953
1677.748047	10169.520508
1676.144531	10409.072266
1674.541016	10491.054688
1672.9375	10554.296875
1671.332031	10749.976563
1669.728516	10806.90332
1668.123047	11010.234375
1666.517578	11260.201172
1664.912109	11373.036133
1663.306641	11439.120117
1661.701172	11816.461914
1660.09375	11925.993164
1658.486328	12116.376953
1656.878906	12078.02832
1655.271484	12528.001953
1653.664063	12598.416016
1652.056641	12637.709961
1650.447266	12701.852539
1648.837891	12786.166016
1647.228516	13084.821289
1645.619141	13310.350586
1644.009766	13632.057617
1642.398438	14105.769531
1640.789063	14549.787109
1639.177734	14819.813477
1637.566406	15460.527344
1635.955078	15686.80957
1634.341797	15762.56543
1632.730469	16159.240234
1631.117188	16332.520508
1629.503906	16299.598633
1627.890625	16720.695313
1626.277344	17126.117188
1624.662109	17484.902344
1623.048828	17453.306641
1621.433594	17729.8125
1619.818359	17826.648438
1618.203125	17917.251953
1616.587891	18088.267578
1614.970703	18358.210938
1613.353516	18628.037109
1611.738281	18885.376953
1610.121094	18924.636719
1608.501953	19167.892578
1606.884766	19268.880859
1605.267578	19601.558594
1603.648438	19761.103516
1602.029297	19838.734375
1600.410156	20175.705078
1598.791016	20259.386719
1597.169922	20193.333984
1595.550781	20114.966797
1593.929688	20144.611328
1592.308594	20020.015625
1590.6875	19932.478516
1589.064453	20065.425781
1587.443359	19739.017578
1585.820313	19398.876953
1584.197266	19502.578125
1582.574219	19271.990234
1580.951172	19192.416016
1579.328125	19245.28125
1577.703125	19567.5
1576.080078	19426.349609
1574.455078	19632.990234
1572.830078	19565.722656
1571.203125	19695.34375
1569.578125	19921.779297
1567.951172	19823.742188
1566.324219	19839.482422
1564.697266	19755.330078
1563.070313	20067.587891
1561.443359	20074.044922
1559.816406	20109.675781
1558.1875	20593.611328
1556.558594	20722.75
1554.929688	21214.015625
1553.300781	21246.296875
1551.669922	21524.007813
1550.041016	21517.863281
1548.410156	21540.853516
1546.779297	21462.650391
1545.148438	21317.039063
1543.517578	21169.957031
1541.884766	20722.652344
1540.251953	20470.068359
1538.621094	20474.865234
1536.988281	20124.449219
1535.353516	19918.074219
1533.720703	19450.082031
1532.085938	19147.541016
1530.453125	18773.228516
1528.818359	18337.896484
1527.183594	17930.275391
1525.546875	17582.451172
1523.912109	17224.074219
1522.275391	16910.164063
1520.640625	17222.783203
1519.003906	16849.435547
1517.365234	16871.775391
1515.728516	16559.732422
1514.091797	16502.746094
1512.453125	16622.814453
1510.814453	16526.164063
1509.175781	16301.411133
1507.537109	16349.758789
1505.896484	16311.168945
1504.257813	16231.432617
1502.617188	15912.432617
1500.976563	15767.288086
1499.335938	15702.951172
1497.693359	15679.766602
1496.052734	15353.541016
1494.410156	15303.033203
1492.767578	15188.613281
1491.125	15188.382813
1489.482422	15131.853516
1487.837891	15273.106445
1486.195313	15201.37207
1484.550781	15342.546875
1482.90625	15340.756836
1481.261719	15396.722656
1479.617188	15673.00293
1477.970703	15387.037109
1476.324219	15385.233398
1474.677734	15462.396484
1473.03125	15349.740234
1471.384766	15604.474609
1469.738281	15264.191406
1468.089844	15125.853516
1466.441406	15298.550781
1464.792969	15267.943359
1463.144531	15583.06543
1461.496094	15623.658203
1459.845703	15884.000977
1458.197266	16013.912109
1456.546875	16037.71582
1454.896484	16129.667969
1453.244141	15941.426758
1451.59375	15886.498047
1449.941406	15628.758789
1448.291016	15248.547852
1446.638672	14924.482422
1444.984375	14807.794922
1443.332031	14741.06543
1441.679688	14760.549805
1440.025391	14585.013672
1438.371094	14473.030273
1436.716797	14584.730469
1435.0625	13969.720703
1433.40625	14099.603516
1431.75	14122.214844
1430.095703	13657.166016
1428.439453	13800.613281
1426.78125	13598.416016
1425.125	13479.287109
1423.466797	13408.478516
1421.810547	13156.726563
1420.152344	13282.027344
1418.494141	13313.810547
1416.833984	13350.100586
1415.175781	13365.27832
1413.515625	13262.943359
1411.855469	13229.93457
1410.195313	13234.583984
1408.535156	13431.931641
1406.875	13736.058594
1405.212891	13796.270508
1403.550781	14049.030273
1401.888672	14330.257813
1400.226563	14608.353516
1398.564453	14630.729492
1396.900391	14777.858398
1395.238281	14502.617188
1393.574219	14344.693359
1391.910156	14326.541992
1390.244141	14084.617188
1388.580078	13817.269531
1386.914063	13766.213867
1385.248047	13923.804688
1383.582031	13989.789063
1381.916016	13973.231445
1380.25	14267.161133
1378.582031	14301.532227
1376.916016	14331.389648
1375.248047	14470.655273
1373.578125	14653.317383
1371.910156	14837.396484
1370.242188	14822.166016
1368.572266	14690.12793
1366.902344	15029.791992
1365.232422	15209.130859
1363.5625	15017.224609
1361.890625	14779.015625
1360.220703	14657.595703
1358.548828	15025.305664
1356.876953	14986.125
1355.205078	15159.25
1353.53125	15135.000977
1351.859375	15127.198242
1350.185547	15431.646484
1348.511719	15812.137695
1346.837891	16089.418945
1345.164063	16299.390625
1343.488281	16674.957031
1341.8125	17108.560547
1340.138672	17638.955078
1338.460938	17936.408203
1336.785156	18409.710938
1335.109375	18556.261719
1333.431641	18668.458984
1331.753906	18413.966797
1330.076172	18357.763672
1328.398438	18239.013672
1326.720703	18132.230469
1325.041016	18128.240234
1323.361328	18249.306641
1321.681641	17949.087891
1320.001953	18187.697266
1318.322266	18386.029297
1316.640625	18071.099609
1314.960938	17872.302734
1313.279297	17584.384766
1311.597656	17104.835938
1309.914063	16647.791016
1308.232422	16633.716797
1306.548828	16260.161133
1304.865234	15990.728516
1303.181641	15712.504883
1301.498047	15455.185547
1299.814453	15082.211914
1298.128906	15047.719727
1296.443359	14682.415039
1294.757813	14286.124023
1293.072266	14189.545898
1291.386719	13952.167969
1289.699219	13931.295898
1288.011719	13591.827148
1286.324219	13637.710938
1284.636719	13590.255859
1282.949219	13396.211914
1281.259766	13185.96582
1279.572266	13193.408203
1277.882813	13095.770508
1276.193359	13200.879883
1274.501953	13171.327148
1272.8125	13197.986328
1271.121094	13026.5
1269.429688	13047.263672
1267.738281	12772.426758
1266.046875	12741.518555
1264.353516	12706.19043
1262.662109	12518.749023
1260.96875	12453.951172
1259.275391	12547.145508
1257.582031	12386.428711
1255.886719	12410.238281
1254.193359	12277.652344
1252.498047	12071.374023
1250.802734	12056.892578
1249.107422	11981.96875
1247.410156	11963.088867
1245.714844	12070.954102
1244.017578	11828.110352
1242.320313	11862.303711
1240.623047	11712.392578
1238.925781	11640.582031
1237.226563	11599.716797
1235.527344	11511.772461
1233.828125	11407.680664
1232.128906	11463.980469
1230.429688	11174.631836
1228.728516	11304.476563
1227.029297	11206.399414
1225.328125	10968.739258
1223.626953	11058.865234
1221.923828	11051.989258
1220.222656	10952.583008
1218.519531	10944.263672
1216.816406	10742.155273
1215.113281	10821.951172
1213.410156	10709.473633
1211.707031	10636.658203
1210.001953	10512.535156
1208.296875	10636.300781
1206.591797	10405.203125
1204.886719	10499.619141
1203.179688	10462.097656
1201.474609	10371.845703
1199.767578	10351.946289
1198.060547	10217.822266
1196.353516	10452.729492
1194.644531	10385.978516
1192.9375	10388.041016
1191.228516	10447.166016
1189.519531	10572.092773
1187.810547	10474.657227
1186.099609	10312.926758
1184.390625	10399.787109
1182.679688	10622.53125
1180.96875	10384.890625
1179.257813	10410.31543
1177.544922	10400.674805
1175.833984	10085.847656
1174.121094	10344.904297
1172.408203	10031.689453
1170.695313	10293.558594
1168.982422	10228.509766
1167.267578	10379.362305
1165.552734	10108.706055
1163.837891	10220.150391
1162.123047	10045.852539
1160.408203	9890.576172
1158.691406	9949.541016
1156.976563	9822.030273
1155.259766	9799.428711
1153.541016	9609.400391
1151.824219	9636.347656
1150.107422	9570.141602
1148.388672	9557.797852
1146.669922	9466.908203
1144.951172	9297.524414
1143.230469	9443.734375
1141.511719	9129.063477
1139.791016	9173.509766
1138.070313	9113.317383
1136.349609	8890.450195
1134.628906	9068.53418
1132.90625	8809.475586
1131.185547	8819.097656
1129.462891	8715.507813
1127.740234	8823.816406
1126.015625	8713.016602
1124.292969	8551.501953
1122.568359	8703.273438
1120.84375	8725.949219
1119.119141	8583.380859
1117.394531	8542.311523
1115.667969	8627.301758
1113.941406	8631.140625
1112.214844	8459.757813
1110.488281	8399.929688
1108.761719	8141.829102
1107.033203	8082.098633
1105.306641	8135.242676
1103.578125	8046.609863
1101.849609	7963.800781
1100.119141	8008.258789
1098.390625	7991.98584
1096.660156	8136.129883
1094.929688	8093.82666
1093.199219	7983.651855
1091.46875	8214.345703
1089.736328	8166.276367
1088.003906	8258.24707
1086.273438	8201.52832
1084.539063	8199.663086
1082.806641	8326.180664
1081.074219	8357.456055
1079.339844	8400.251953
1077.605469	8480.505859
1075.871094	8281.130859
1074.134766	8346.964844
1072.400391	8180.841309
1070.664063	7888.053711
1068.927734	8002.88623
1067.191406	7815.358887
1065.455078	7636.55127
1063.716797	7601.714844
1061.978516	7615.804688
1060.240234	7405.520996
1058.501953	7495.857422
1056.763672	7492.708496
1055.023438	7386.077637
1053.283203	7239.260254
1051.542969	7210.311035
1049.802734	7231.643555
1048.0625	7202.70752
1046.320313	7122.102051
1044.578125	7205.155273
1042.835938	7355.613281
1041.09375	7346.757324
1039.351563	7306.349609
1037.607422	7251.620117
1035.863281	7202.649902
1034.119141	7218.200195
1032.375	7302.526367
1030.628906	7262.171387
1028.884766	7180.296387
1027.138672	7334.739746
1025.392578	7281.517578
1023.646484	7461.629395
1021.898438	7275.316406
1020.152344	7359.489258
1018.404297	7506.558594
1016.65625	7331.80127
1014.90625	7375.868652
1013.158203	7236.95459
1011.408203	7345.32959
1009.658203	7303.637695
1007.908203	7310.530273
1006.158203	7276.004395
1004.40625	7305.742188
1002.65625	7258.385254
1000.904297	7275.268066
999.150391	7364.907227
997.398438	7303.302734
995.646484	7161.864746
993.892578	7237.20752
992.138672	7205.607422
990.384766	7213.923828
988.628906	7178.067383
986.875	7123.708984
985.119141	7334.262695
983.363281	7148.901855
981.607422	7134.442383
979.849609	7289.343262
978.09375	7237.86377
976.335938	7243.306641
974.578125	7255.856934
972.820313	7150.388672
971.060547	7199.912598
969.300781	7314.786621
967.542969	7252.000977
965.78125	7302.884766
964.021484	7254.331543
962.261719	7479.833008
960.5	7662.644043
958.738281	7741.76709
956.976563	7791.056641
955.214844	7762.302246
953.451172	7710.869141
951.6875	7504.908203
949.923828	7282.03125
948.160156	7253.418457
946.396484	7034.952148
944.630859	7082.90332
942.865234	7028.861328
941.099609	7011.657715
939.333984	6878.382813
937.568359	6883.864746
935.800781	6829.916504
934.033203	6850.966797
932.265625	6849.37793
930.498047	6751.640137
928.730469	6984.73584
926.960938	6950.609375
925.191406	6912.258789
923.421875	6834.371094
921.652344	6918.935547
919.880859	6855.201172
918.109375	6973.600098
916.337891	6852.016602
914.566406	6808.094238
912.794922	6869.992188
911.021484	6788.005371
909.248047	6931.658691
907.474609	6749.605957
905.701172	6811.45752
903.927734	6774.646484
902.152344	6636.425293
900.376953	6727.833984
898.601563	6776.95752
896.826172	6676.838867
895.050781	6656.987305
893.273438	6708.905273
891.496094	6625.751465
889.71875	6477.94043
887.939453	6399.095703
886.162109	6383.546387
884.382813	6369.408691
882.603516	6389
880.824219	6291.984863
879.044922	6246.979004
877.263672	6341.001465
875.482422	6274.946777
873.701172	6276.289063
871.919922	6214.48877
870.138672	6170.953125
868.355469	6235.428223
866.572266	6175.081055
864.789063	6246.532715
863.005859	6187.611816
861.220703	6207.182617
859.435547	6240.752441
857.650391	6270.104492
855.865234	6359.649902
854.080078	6206.977539
852.292969	6206.924805
850.505859	6108.926758
848.71875	6233.395996
846.931641	6234.733887
845.144531	6129.805176
843.355469	6087.830566
841.566406	6175.849121
839.777344	6188.374512
837.988281	6252.579102
836.197266	6249.717285
834.408203	6191.005859
832.617188	6167.219238
830.824219	6091.806152
829.033203	6189.441895
827.240234	6101.50293
825.449219	6100.071289
823.65625	6077.725586
821.861328	5977.327637
820.068359	6017.733398
818.273438	6014.927246
816.478516	6123.560547
814.683594	6084.520508
812.888672	6151.31543
811.091797	6155.437988
809.296875	5991.165039
807.5	6095.499512
805.701172	5922.971191
803.904297	6050.913086
802.105469	6071.73584
800.308594	6014.706055
798.509766	6039.695801
796.708984	6000.76123
794.910156	6066.023926
793.109375	5949.331543
791.308594	6029.847168
789.507813	6100.607422
787.707031	6156.068848
785.904297	6093.571777
784.101563	5907.652344
782.298828	5902.100586
780.496094	5843.865234
778.693359	5896.546875
776.888672	5756.577637
775.083984	5760.762207
773.279297	5868.830078
771.474609	5870.215332
769.667969	5762.225586
767.861328	5794.085938
766.054688	5816.244141
764.248047	5900.648926
762.441406	5975.331055
760.632813	6030.617188
758.824219	5969.745117
757.015625	6276.565918
755.207031	6330.358398
753.398438	6740.563965
751.587891	7017.978027
749.777344	7583.866699
747.966797	8211.613281
746.154297	9024.014648
744.34375	9449.655273
742.53125	9654.359375
740.71875	10195.505859
738.90625	11246.601563
737.091797	12756.276367
735.277344	14397.550781
733.464844	15933.323242
731.648438	16433.765625
729.833984	15727.451172
728.019531	14043.813477
726.203125	11825.453125
724.386719	10070.587891
722.568359	8587.625977
720.751953	7560.713379
718.933594	7122.937012
717.115234	6660.616211
715.296875	6463.831055
713.478516	6526.89502
711.658203	6427.790527
709.839844	6434.509277
708.019531	6353.327148
706.197266	6229.617188
704.376953	6342.077637
702.554688	6252.73877
700.734375	6455.697754
698.910156	6459.65332
697.087891	6715.95166
695.265625	6656.770996
693.441406	6529.078613
691.617188	6489.155762
689.792969	6576.674316
687.966797	6602.509277
686.140625	6640.656738
684.316406	6509.009277
682.490234	6471.873535
680.662109	6303.377441
678.835938	6338.820801
677.007813	6177.274902
675.179688	6152.558594
673.351563	6267.30957
671.521484	6358.768555
669.693359	6243.832031
667.863281	6271.038574
666.033203	6210.813477
664.201172	6344.529785
662.371094	6168.26709
660.539063	6239.141602
658.707031	6305.888184
656.875	6335.766602
655.041016	6354.71875
653.208984	6324.569824
651.375	6336.697754
649.541016	6253.410156
647.705078	6426.342773
645.871094	6281.766602
644.035156	6427.369141
642.199219	6429.923828
640.363281	6504.629395
638.525391	6667.766602
636.689453	6645.767578
634.851563	6347.617188
633.013672	6291.702148
631.173828	6166.46582
629.335938	6155.47998
627.496094	6143.140137
625.65625	6102.271484
623.816406	6062.780273
621.974609	6103.437012
620.132813	6133.210938
618.292969	6097.811523
616.449219	6107.214844
614.607422	6022.991211
612.763672	5815.364746
610.921875	5851.950684
609.078125	5877.671875
607.232422	5701.404785
605.388672	5502.182617
603.542969	5609.26123
601.697266	5569.994629
599.851563	5570.019531
598.005859	5584.937012
596.158203	5721.670898
594.310547	5578.210938
592.462891	5645.879883
590.615234	5724.336914
588.765625	5606.671387
586.916016	5562.068848
585.066406	5610.751953
583.216797	5591.844238
581.367188	5721.557129
579.515625	5647.25293
577.664063	5667.509766
575.8125	5767.40918
573.960938	5699.894531
572.107422	5925.231934
570.253906	5900.881836
568.400391	6059.973633
566.546875	5969.52832
564.693359	5939.791016
562.837891	5826.504395
560.982422	5715.966309
559.126953	5703.822266
557.269531	5670.134766
555.414063	5552.979492
553.556641	5500.496582
551.699219	5439.963379
549.841797	5359.275391
547.982422	5410.457031
546.123047	5237.016113
544.263672	5372.909668
542.404297	5277.526855
540.544922	5418.720703
538.683594	5438.921875
536.822266	5492.695313
534.960938	5522.269043
533.099609	5421.591797
531.236328	5324.989746
529.373047	5233.80127
527.509766	5262.06543
525.646484	5326.532227
523.783203	5558.597656
521.917969	5921.941895
520.052734	6549.169434
518.1875	6188.461426
516.320313	5529.161133
514.455078	5237.180664
512.587891	5091.302246
510.720703	4850.439941
508.853516	4959.032715
506.984375	4818.677734
505.115234	4780.064453
503.246094	4984.895996
501.376953	4902.133789
499.507813	4810.052246
497.636719	4806.227051
495.765625	4732.919434
493.894531	4906.790039
492.021484	4894.929688
490.150391	5017.937012
488.277344	5114.186035
486.404297	5120.96875
484.53125	5017
482.65625	5094.503418
480.78125	5107.953125
478.90625	5117.395996
477.03125	5018.858887
475.15625	5094.953613
473.279297	5035.107422
471.402344	4961.96875
469.525391	4942.135254
467.648438	4834.436523
465.769531	4885.191406
463.890625	4906.644043
462.011719	4889.502441
460.132813	4804.530762
458.251953	4937.693359
456.371094	4811.534668
454.490234	4697.399414
452.609375	4781.322266
450.728516	4699.133789
448.845703	4686.053223
446.962891	4665.01123
445.080078	4767.446777
443.197266	4782.231934
441.3125	4674.927734
439.427734	4748.100098
437.542969	4748.288086
435.658203	4817.429199
433.771484	4850.742676
431.886719	4888.016113
430	4889.494629
428.111328	4898.920898
426.224609	4854.040527
424.335938	4852.876953
422.447266	4784.200195
420.558594	4769.818848
418.669922	4861.296875
416.779297	4735.784668
414.888672	4724.069336
412.998047	4802.27002
411.107422	4766.749512
409.214844	4753.712891
407.324219	4782.962891
405.431641	4804.272461
403.537109	4675.020508
401.644531	4735.95459
399.75	4684.660156
