#Wave	#Intensity
2109.007813	7207.780762
2107.496094	7265.667969
2105.984375	7207.875488
2104.470703	7191.438477
2102.958984	7209.717773
2101.445313	7054.478516
2099.933594	7280.94873
2098.419922	7252.947754
2096.90625	7068.074219
2095.390625	7083.058594
2093.876953	7140.955566
2092.361328	7073.400879
2090.845703	6971.225586
2089.332031	6940.02832
2087.814453	6917.091309
2086.298828	7016.185059
2084.783203	6998.1875
2083.265625	7031.29248
2081.748047	6980.341797
2080.230469	6904.701172
2078.712891	6947.6875
2077.195313	6970.894043
2075.677734	6908.475586
2074.158203	6847.72998
2072.638672	6907.149414
2071.119141	6910.600586
2069.599609	6767.642578
2068.080078	6907.629883
2066.560547	6909.434082
2065.039063	6794.515625
2063.517578	6844.008301
2061.996094	6865.544434
2060.474609	6868.999023
2058.953125	6869.166992
2057.429688	6930.09668
2055.908203	6981.148926
2054.384766	6840.124023
2052.861328	6855.068359
2051.337891	6922.512207
2049.814453	6896.421387
2048.289063	6894.943359
2046.765625	6809.838867
2045.240234	6796.904297
2043.714844	6854.453613
2042.189453	6859.540527
2040.664063	6777.793457
2039.136719	6815.654297
2037.609375	6789.630859
2036.083984	6843.845703
2034.556641	6806.369141
2033.029297	6934.203125
2031.5	6860.726074
2029.972656	6831.44873
2028.443359	6777.651367
2026.914063	6805.63623
2025.386719	6881.019043
2023.855469	6873.010742
2022.326172	6829.054688
2020.796875	6827.596191
2019.265625	6982.948242
2017.734375	6792.019043
2016.203125	7009.356445
2014.671875	6771.163574
2013.140625	6857.849121
2011.607422	6895.546387
2010.076172	6706.470215
2008.542969	6890.974121
2007.009766	6851.999512
2005.476563	6821.192871
2003.943359	6917.536133
2002.408203	6873.691895
2000.875	6922.734375
1999.339844	6856.102539
1997.804688	6870.927734
1996.269531	6928.080078
1994.732422	6828.931641
1993.197266	6886.068848
1991.660156	6861.821777
1990.123047	6912.419922
1988.585938	6740.16748
1987.048828	6885.085449
1985.511719	6888.498047
1983.972656	6859.399902
1982.435547	6849.814941
1980.896484	6861.356445
1979.357422	6708.82666
1977.818359	6858.438477
1976.279297	6876.464844
1974.738281	6788.963867
1973.197266	7065.05957
1971.658203	6829.891113
1970.117188	6885.22168
1968.576172	6925.931152
1967.033203	6859.593262
1965.492188	6919.746094
1963.949219	6921.518555
1962.40625	6897.359863
1960.863281	6882.933105
1959.320313	6949.508789
1957.777344	7043.589355
1956.232422	6857.500488
1954.689453	6775.100098
1953.144531	6903.146973
1951.599609	6942.137695
1950.054688	6985.965332
1948.507813	6986.100586
1946.962891	6843.923828
1945.416016	6952.41748
1943.869141	6831.322266
1942.322266	6921.994629
1940.775391	6901.137207
1939.228516	6902.905273
1937.679688	6814.225098
1936.132813	6903.208984
1934.583984	6911.432617
1933.035156	6974.531738
1931.486328	6848.794434
1929.935547	6931.241211
1928.386719	6734.59082
1926.835938	6917.015625
1925.285156	6891.364746
1923.734375	7012.420898
1922.183594	6964.196289
1920.632813	6861.205566
1919.080078	6929.026855
1917.527344	6884.071289
1915.976563	6798.875977
1914.423828	6916.577148
1912.869141	6755.756348
1911.316406	6894.337402
1909.761719	6936.320801
1908.208984	6883.376465
1906.654297	6997.717773
1905.099609	6877.248047
1903.544922	6872.577637
1901.988281	6924.164063
1900.433594	6925.913086
1898.876953	6999.958496
1897.320313	6903.708496
1895.763672	6886.188965
1894.207031	6907.210938
1892.648438	6926.618164
1891.091797	6907.499512
1889.533203	6898.016113
1887.974609	6984.790039
1886.416016	6912.742188
1884.857422	6994.665039
1883.298828	6874.549316
1881.738281	6876.301758
1880.177734	6821.964844
1878.617188	6865.384277
1877.056641	6939.220215
1875.496094	6868.888184
1873.935547	6910.668457
1872.373047	6801.952148
1870.810547	6942.958984
1869.248047	6946.29248
1867.685547	7021.615723
1866.123047	6837.791016
1864.560547	6940.291016
1862.996094	6841.297363
1861.431641	6811.07959
1859.867188	6879.958496
1858.302734	6867.320313
1856.738281	7083.124023
1855.171875	6982.605957
1853.607422	6875.743652
1852.041016	6963.691895
1850.474609	6955.836914
1848.908203	7005.432129
1847.341797	7023.097656
1845.773438	6983.332031
1844.207031	6949.961914
1842.638672	7025.026367
1841.070313	6964.561523
1839.501953	7006.12207
1837.931641	6894.696777
1836.363281	6888.461426
1834.792969	6974.607422
1833.222656	6911.030762
1831.652344	7164.302246
1830.082031	6930.396484
1828.511719	6963.943848
1826.941406	7045.208496
1825.369141	7003.952637
1823.796875	7077.22168
1822.224609	6958.063477
1820.652344	7023.362305
1819.078125	7123.599609
1817.505859	6980.67041
1815.931641	7126.946289
1814.357422	6999.959473
1812.783203	7087.411621
1811.208984	7058.923828
1809.634766	7243.155273
1808.058594	7060.704102
1806.484375	7036.999512
1804.908203	6907.018066
1803.332031	7065.748047
1801.753906	7107.069824
1800.177734	7126.178711
1798.601563	7205.509766
1797.023438	7091.475586
1795.445313	7099.483887
1793.867188	7128.081055
1792.289063	7132.910156
1790.708984	7226.404785
1789.130859	7156.808594
1787.550781	7164.793457
1785.970703	7101.568359
1784.390625	7177.586914
1782.810547	7324.748535
1781.228516	7275.76123
1779.646484	7250.509277
1778.066406	7239.493652
1776.484375	7226.901855
1774.902344	7380.21582
1773.318359	7321.788574
1771.736328	7337.614258
1770.152344	7418.172363
1768.568359	7233.479004
1766.984375	7421.351563
1765.400391	7279.34082
1763.816406	7355.108887
1762.230469	7333.049316
1760.646484	7385.117676
1759.060547	7463.967285
1757.474609	7347.316895
1755.888672	7500.212891
1754.300781	7397.784668
1752.714844	7391.495117
1751.126953	7421.432617
1749.539063	7478.126953
1747.951172	7537.945313
1746.363281	7421.449219
1744.775391	7564.658203
1743.185547	7592.952148
1741.595703	7597.63916
1740.007813	7669.948242
1738.416016	7790.969238
1736.826172	7723.296875
1735.236328	7786.102539
1733.644531	7814.311523
1732.052734	7864.501953
1730.462891	7771.73877
1728.869141	7664.881348
1727.277344	7829.681641
1725.685547	7768.377441
1724.091797	7769.87207
1722.498047	7878.05957
1720.904297	8011.300293
1719.310547	7899.819824
1717.716797	8045.541992
1716.121094	8054.812988
1714.527344	8015.491699
1712.931641	8081.177246
1711.335938	8082.599609
1709.740234	8163.905762
1708.142578	8273.366211
1706.546875	8176.105957
1704.949219	8415.442383
1703.351563	8208.639648
1701.753906	8328.948242
1700.15625	8402.274414
1698.558594	8411.442383
1696.958984	8420.606445
1695.359375	8493.865234
1693.759766	8540.520508
1692.160156	8602.782227
1690.560547	8727.512695
1688.960938	8638.1875
1687.359375	8887.794922
1685.757813	8935.875
1684.15625	8994.862305
1682.554688	9069.431641
1680.953125	9143.96875
1679.349609	9360.439453
1677.748047	9339.737305
1676.144531	9301.890625
1674.541016	9463.621094
1672.9375	9531.756836
1671.332031	9808.691406
1669.728516	9764.541992
1668.123047	9958.748047
1666.517578	10131.066406
1664.912109	10219.227539
1663.306641	10319.804688
1661.701172	10362.750977
1660.09375	10553.507813
1658.486328	10705.289063
1656.878906	11035.880859
1655.271484	11098.851563
1653.664063	11357.698242
1652.056641	11599.334961
1650.447266	11665.251953
1648.837891	11905.165039
1647.228516	12129.441406
1645.619141	12557.081055
1644.009766	12422.423828
1642.398438	12795.481445
1640.789063	12940.214844
1639.177734	13303.691406
1637.566406	13324.134766
1635.955078	13403.512695
1634.341797	13822.486328
1632.730469	14109.488281
1631.117188	14152.991211
1629.503906	14331.310547
1627.890625	14415.033203
1626.277344	14740.389648
1624.662109	14971.12793
1623.048828	15499.082031
1621.433594	15529.841797
1619.818359	15947.551758
1618.203125	16167
1616.587891	16381.710938
1614.970703	16570.033203
1613.353516	17096.964844
1611.738281	17368.546875
1610.121094	17437.501953
1608.501953	17600.705078
1606.884766	17969.351563
1605.267578	18365.648438
1603.648438	18225.810547
1602.029297	18430.396484
1600.410156	18837.142578
1598.791016	18842.386719
1597.169922	18984.974609
1595.550781	19153.730469
1593.929688	19299.275391
1592.308594	19342.966797
1590.6875	19624.09375
1589.064453	19710.859375
1587.443359	19785.255859
1585.820313	19898.142578
1584.197266	19793.751953
1582.574219	20076.017578
1580.951172	19917.732422
1579.328125	19764.134766
1577.703125	20257.103516
1576.080078	20105.033203
1574.455078	20145.355469
1572.830078	19925.685547
1571.203125	19787.621094
1569.578125	19666.529297
1567.951172	19536.261719
1566.324219	19489.046875
1564.697266	19312.771484
1563.070313	18953.746094
1561.443359	19101.753906
1559.816406	18825.851563
1558.1875	18745.054688
1556.558594	18909.892578
1554.929688	19154.462891
1553.300781	19197.925781
1551.669922	19069.556641
1550.041016	18896.763672
1548.410156	18604.439453
1546.779297	18859.537109
1545.148438	19151.308594
1543.517578	18673.695313
1541.884766	18632.921875
1540.251953	18589.101563
1538.621094	18284.958984
1536.988281	18212.136719
1535.353516	18062.808594
1533.720703	17846.205078
1532.085938	17689.365234
1530.453125	17806.419922
1528.818359	17574.710938
1527.183594	17489.894531
1525.546875	17218.601563
1523.912109	17331.064453
1522.275391	16904.052734
1520.640625	16917.224609
1519.003906	16782.228516
1517.365234	16769.457031
1515.728516	16869.673828
1514.091797	16582.123047
1512.453125	16584.660156
1510.814453	16546
1509.175781	16527.183594
1507.537109	16393.988281
1505.896484	16184.607422
1504.257813	16229.908203
1502.617188	16000.834961
1500.976563	15969.959961
1499.335938	16193.525391
1497.693359	15862.549805
1496.052734	15607.859375
1494.410156	15867.894531
1492.767578	15751.831055
1491.125	15498.84668
1489.482422	15500.069336
1487.837891	15437.399414
1486.195313	15199.851563
1484.550781	15112.94043
1482.90625	14972.858398
1481.261719	14594.208008
1479.617188	14472.530273
1477.970703	14384.327148
1476.324219	14387.296875
1474.677734	14558.828125
1473.03125	14558.719727
1471.384766	14405.297852
1469.738281	14364.244141
1468.089844	14455.211914
1466.441406	14497.595703
1464.792969	14488.394531
1463.144531	14512.554688
1461.496094	14523.058594
1459.845703	14422.915039
1458.197266	14665.276367
1456.546875	14686.341797
1454.896484	14280.261719
1453.244141	14455.862305
1451.59375	14037.892578
1449.941406	14162.000977
1448.291016	13954.630859
1446.638672	13875.955078
1444.984375	13801.851563
1443.332031	13591.665039
1441.679688	13679.44043
1440.025391	13495.068359
1438.371094	13315.308594
1436.716797	13377.395508
1435.0625	13348.810547
1433.40625	13271.90332
1431.75	13145.196289
1430.095703	13036.660156
1428.439453	13074.583008
1426.78125	13012.888672
1425.125	12715.852539
1423.466797	12869.966797
1421.810547	12714.850586
1420.152344	12690.977539
1418.494141	12590.234375
1416.833984	12480.490234
1415.175781	12542.567383
1413.515625	12512.722656
1411.855469	12669.650391
1410.195313	12550.945313
1408.535156	12624.992188
1406.875	12968.428711
1405.212891	13000.21582
1403.550781	13397.581055
1401.888672	13486.416016
1400.226563	13951.172852
1398.564453	13812.81543
1396.900391	13680.529297
1395.238281	13600.900391
1393.574219	13497.263672
1391.910156	13404.186523
1390.244141	13345.692383
1388.580078	13477.918945
1386.914063	13269.30957
1385.248047	13288.925781
1383.582031	13307.03125
1381.916016	13445.147461
1380.25	13632.698242
1378.582031	13587.730469
1376.916016	13541.282227
1375.248047	13634.25293
1373.578125	13381.004883
1371.910156	13515.918945
1370.242188	13530.9375
1368.572266	13542.953125
1366.902344	13706.188477
1365.232422	13626.842773
1363.5625	13584.946289
1361.890625	13540.074219
1360.220703	13598.443359
1358.548828	13858.698242
1356.876953	13750.988281
1355.205078	13852.624023
1353.53125	14046.882813
1351.859375	14161.855469
1350.185547	14312.631836
1348.511719	14544
1346.837891	14334.725586
1345.164063	14604.802734
1343.488281	14779.227539
1341.8125	15044.609375
1340.138672	15387.459961
1338.460938	15589.936523
1336.785156	15664.0625
1335.109375	15914.100586
1333.431641	16256.452148
1331.753906	16206.674805
1330.076172	16034.731445
1328.398438	16066.958008
1326.720703	16085.763672
1325.041016	16055.419922
1323.361328	16236.493164
1321.681641	16094.493164
1320.001953	16199.580078
1318.322266	16373.058594
1316.640625	16308.464844
1314.960938	16319.742188
1313.279297	15989.048828
1311.597656	15847.28125
1309.914063	15316.205078
1308.232422	15107.78418
1306.548828	15258.941406
1304.865234	14838.243164
1303.181641	14823.089844
1301.498047	14410.09375
1299.814453	14205.0625
1298.128906	14050.572266
1296.443359	13879.830078
1294.757813	13869.34668
1293.072266	13569.708008
1291.386719	13433.279297
1289.699219	13378.431641
1288.011719	13210.983398
1286.324219	13239.172852
1284.636719	13036.277344
1282.949219	13092.62793
1281.259766	12750.678711
1279.572266	12691.605469
1277.882813	12536.363281
1276.193359	12575.013672
1274.501953	12521.932617
1272.8125	12402.321289
1271.121094	12427.665039
1269.429688	12648.128906
1267.738281	12621.675781
1266.046875	12605.577148
1264.353516	12624.939453
1262.662109	12517.272461
1260.96875	12467.241211
1259.275391	12421.65918
1257.582031	12572.402344
1255.886719	12358.59082
1254.193359	12404.530273
1252.498047	12223.297852
1250.802734	12334.129883
1249.107422	12161.837891
1247.410156	11889.388672
1245.714844	11978.111328
1244.017578	11932.71875
1242.320313	11731.204102
1240.623047	11865.552734
1238.925781	11792.237305
1237.226563	11726.3125
1235.527344	11913.550781
1233.828125	11884.411133
1232.128906	11978.852539
1230.429688	11824.696289
1228.728516	11811.765625
1227.029297	11391.628906
1225.328125	11356.75293
1223.626953	10997.149414
1221.923828	10853.661133
1220.222656	10885.019531
1218.519531	10838.536133
1216.816406	10651.132813
1215.113281	10587.106445
1213.410156	10791.651367
1211.707031	10567.703125
1210.001953	10436.261719
1208.296875	10363.537109
1206.591797	10402.271484
1204.886719	10246.033203
1203.179688	10104.519531
1201.474609	10305.914063
1199.767578	10291.887695
1198.060547	10233.931641
1196.353516	10542.043945
1194.644531	10312.786133
1192.9375	10335.354492
1191.228516	10369.617188
1189.519531	10364.366211
1187.810547	10386.905273
1186.099609	10426.978516
1184.390625	10180.505859
1182.679688	10433.992188
1180.96875	10400.963867
1179.257813	10305.130859
1177.544922	10169.905273
1175.833984	10126.734375
1174.121094	10041.244141
1172.408203	9942.655273
1170.695313	10014.841797
1168.982422	9836.05957
1167.267578	9877.605469
1165.552734	10011.001953
1163.837891	10040.824219
1162.123047	9844.702148
1160.408203	9956.15332
1158.691406	9886.891602
1156.976563	9801.636719
1155.259766	9661.081055
1153.541016	9605.032227
1151.824219	9515.529297
1150.107422	9562.864258
1148.388672	9438.489258
1146.669922	9325.806641
1144.951172	9198.629883
1143.230469	9135.486328
1141.511719	9134.87793
1139.791016	8984.574219
1138.070313	8924.424805
1136.349609	8694.336914
1134.628906	8680.753906
1132.90625	8519.069336
1131.185547	8389.393555
1129.462891	8393.301758
1127.740234	8346.421875
1126.015625	8186.405273
1124.292969	8242.568359
1122.568359	8072.496094
1120.84375	8031.526367
1119.119141	8042.752441
1117.394531	8164.102539
1115.667969	8086.918457
1113.941406	8153.162109
1112.214844	8144.07373
1110.488281	8039.436523
1108.761719	8044.851074
1107.033203	7852.008301
1105.306641	7827.078613
1103.578125	7695.12207
1101.849609	7699.160156
1100.119141	7580.303223
1098.390625	7708.674316
1096.660156	7682.355957
1094.929688	7736.958496
1093.199219	7740.979004
1091.46875	7577.474121
1089.736328	7621.954102
1088.003906	7727.040039
1086.273438	7618.488281
1084.539063	7675.912109
1082.806641	7715.998047
1081.074219	7797.88916
1079.339844	7761.509277
1077.605469	7769.833008
1075.871094	7530.265625
1074.134766	7485.324219
1072.400391	7434.640137
1070.664063	7359.495117
1068.927734	7393.814453
1067.191406	7150.283203
1065.455078	7168.801758
1063.716797	7142.705078
1061.978516	7080.655762
1060.240234	7192.661133
1058.501953	7191.019043
1056.763672	7177.876465
1055.023438	7107.249023
1053.283203	7022.283691
1051.542969	7096.819336
1049.802734	7006.148438
1048.0625	7093.575684
1046.320313	7147.942871
1044.578125	7162.09668
1042.835938	7141.803711
1041.09375	7132.996582
1039.351563	7045.306152
1037.607422	6999.240234
1035.863281	6987.602539
1034.119141	7026.135254
1032.375	7074.680664
1030.628906	7087.386719
1028.884766	7077.168457
1027.138672	7109.914551
1025.392578	7128.328125
1023.646484	7249.789551
1021.898438	7198.041016
1020.152344	7196.390137
1018.404297	7127.511719
1016.65625	7190.227539
1014.90625	7105.653809
1013.158203	7214.084473
1011.408203	7249.583008
1009.658203	7237.916504
1007.908203	7353.381836
1006.158203	7081.787109
1004.40625	7202.944824
1002.65625	7212.708496
1000.904297	7172.518555
999.150391	7239.352539
997.398438	7106.456055
995.646484	6960.784668
993.892578	6892.171387
992.138672	6738.0625
990.384766	6770.713379
988.628906	6726.410645
986.875	6739.105469
985.119141	6842.937988
983.363281	6701.828613
981.607422	6690.319336
979.849609	6767.049316
978.09375	6755.529297
976.335938	6822.250488
974.578125	6625.840332
972.820313	6554.641602
971.060547	6661.162598
969.300781	6753.422363
967.542969	6746.179688
965.78125	6868.206543
964.021484	6964.612793
962.261719	7171.723145
960.5	7201.29541
958.738281	7237.949219
956.976563	7243.370117
955.214844	7255.880371
953.451172	7251.365234
951.6875	7110.733887
949.923828	7097.748047
948.160156	6853.757324
946.396484	7039.202637
944.630859	7074.403809
942.865234	6771.103516
941.099609	6908.29541
939.333984	6801.94043
937.568359	6740.922852
935.800781	6576.64209
934.033203	6661.408691
932.265625	6617.435059
930.498047	6598.932617
928.730469	6580.438477
926.960938	6662.295898
925.191406	6516.626465
923.421875	6519.351563
921.652344	6462.757813
919.880859	6406.188965
918.109375	6266.358398
916.337891	6454.020996
914.566406	6331.174805
912.794922	6348.041992
911.021484	6424.135254
909.248047	6519.933105
907.474609	6549.429688
905.701172	6359.051758
903.927734	6382.93457
902.152344	6342.005371
900.376953	6550.37793
898.601563	6424.944336
896.826172	6483.980469
895.050781	6476.84082
893.273438	6489.402832
891.496094	6448.501953
889.71875	6476.533691
887.939453	6307.700195
886.162109	6327.315918
884.382813	6203.567871
882.603516	6211.957031
880.824219	6168.364746
879.044922	6129.005371
877.263672	6082.643555
875.482422	6131.760254
873.701172	6251.026367
871.919922	6107.850098
870.138672	6131.674316
868.355469	6215.793457
866.572266	6133.016602
864.789063	6134.386719
863.005859	6208.634277
861.220703	6274.438965
859.435547	6319.199707
857.650391	6401.75293
855.865234	6415.657715
854.080078	6304.967773
852.292969	6241.913086
850.505859	6138.310059
848.71875	6101.901367
846.931641	6217.951172
845.144531	6199.716309
843.355469	6131.165527
841.566406	6174.45166
839.777344	6186.977051
837.988281	6146.414063
836.197266	6230.165039
834.408203	6013.681152
832.617188	5924.327148
830.824219	5982.949219
829.033203	6017.822754
827.240234	6049.890137
825.449219	5910.402832
823.65625	5988.490723
821.861328	6037.268066
820.068359	6079.053711
818.273438	5956.408203
816.478516	5989.833984
814.683594	6009.316895
812.888672	6012.082031
811.091797	6057.997559
809.296875	6017.606934
807.5	6034.280273
805.701172	6013.387207
803.904297	5977.206055
802.105469	5925.74707
800.308594	5886.822266
798.509766	5767.312012
796.708984	5761.786621
794.910156	5697.92334
793.109375	5625.756836
791.308594	5709.125
789.507813	5671.690918
787.707031	5660.641113
785.904297	5664.857422
784.101563	5703.749023
782.298828	5570.662109
780.496094	5687.197266
778.693359	5594.373047
776.888672	5660.958008
775.083984	5598.663086
773.279297	5645.822754
771.474609	5504.625488
769.667969	5634.853027
767.861328	5546.321777
766.054688	5576.841309
764.248047	5640.549805
762.441406	5635.068848
760.632813	5582.573242
758.824219	5736.098145
757.015625	5747.183594
755.207031	5696.078613
753.398438	5791.441406
751.587891	5933.720215
749.777344	6121.500488
747.966797	6183.560059
746.154297	6470.568848
744.34375	6636.009277
742.53125	6799.990723
740.71875	7056.305176
738.90625	7516.57959
737.091797	8324.045898
735.277344	9404.029297
733.464844	10464.209961
731.648438	11001.764648
729.833984	11096.950195
728.019531	10156.600586
726.203125	9073.522461
724.386719	8156.116699
722.568359	7400.136719
720.751953	6888.008301
718.933594	6528.785645
717.115234	6250.859375
715.296875	6161.397461
713.478516	6088.469727
711.658203	5878.171875
709.839844	5755.891113
708.019531	5655.64209
706.197266	5768.266113
704.376953	5725.71582
702.554688	5803.958008
700.734375	5786.116211
698.910156	5729.873047
697.087891	5850.571777
695.265625	5805.307617
693.441406	5776.51416
691.617188	5835.443359
689.792969	5951.890625
687.966797	5880.616699
686.140625	5847.722168
684.316406	5812.104492
682.490234	5865.477539
680.662109	5810.711914
678.835938	5836.695313
677.007813	5807.951172
675.179688	5854.435059
673.351563	5903.630859
671.521484	6025.247559
669.693359	5966.419434
667.863281	6014.185547
666.033203	5934.898438
664.201172	5919.831543
662.371094	5934.806641
660.539063	6004.37207
658.707031	5773.687988
656.875	5888.279297
655.041016	6118.752441
653.208984	6062.750488
651.375	6178.553223
649.541016	6117.11084
647.705078	6032.531738
645.871094	6078.777832
644.035156	6063.709961
642.199219	6021.415039
640.363281	5931.492188
638.525391	5928.718262
636.689453	5868.794922
634.851563	5866.036621
633.013672	5925.842285
631.173828	5789.814941
629.335938	5742.214844
627.496094	5753.078125
625.65625	5768.012207
623.816406	5818.258301
621.974609	5916.014648
620.132813	5848.071777
618.292969	5881.97168
616.449219	5717.709961
614.607422	5828.963867
612.763672	5683.783203
610.921875	5748.880371
609.078125	5647.175293
607.232422	5531.962402
605.388672	5586.206543
603.542969	5464.287598
601.697266	5426.410156
599.851563	5365.52832
598.005859	5209.899902
596.158203	5300.701172
594.310547	5260.190918
592.462891	5214.287109
590.615234	5311.78418
588.765625	5182.046387
586.916016	5128.081543
585.066406	5294.462891
583.216797	5335.089844
581.367188	5350.027344
579.515625	5316.333008
577.664063	5263.748535
575.8125	5277.341309
573.960938	5312.522949
572.107422	5226.240723
570.253906	5362.598145
568.400391	5277.693359
566.546875	5291.264648
564.693359	5356.057617
562.837891	5341.299316
560.982422	5333.284668
559.126953	5309.10791
557.269531	5344.203125
555.414063	5233.858398
553.556641	5190.875
551.699219	5244.813477
549.841797	5049.801758
547.982422	5084.915039
546.123047	5173.806152
544.263672	5134.92041
542.404297	5198.216309
540.544922	5050.484375
538.683594	5089.583984
536.822266	4944.634766
534.960938	5069.689941
533.099609	4912.730469
531.236328	4911.554688
529.373047	4859.382813
527.509766	4915.912109
525.646484	5090.453613
523.783203	5152.263672
521.917969	5649.776367
520.052734	6195.305176
518.1875	5933.847656
516.320313	5289.345215
514.455078	4935.808105
512.587891	4887.757324
510.720703	4746.01416
508.853516	4698.03125
506.984375	4672.819336
505.115234	4733.240234
503.246094	4693.318848
501.376953	4714.927246
499.507813	4630.912109
497.636719	4629.802734
495.765625	4619.340332
493.894531	4607.546387
492.021484	4618.462891
490.150391	4608.009766
488.277344	4604.23584
486.404297	4476.343262
484.53125	4543.320313
482.65625	4698.308594
480.78125	4619.830078
478.90625	4621.390137
477.03125	4630.946777
475.15625	4712.465332
473.279297	4672.696777
471.402344	4537.038086
469.525391	4550.600098
467.648438	4602.766602
465.769531	4572.379395
463.890625	4561.967773
462.011719	4679.287109
460.132813	4628.949707
458.251953	4598.583984
456.371094	4618.754395
454.490234	4657.523438
452.609375	4632.487305
450.728516	4559.634766
448.845703	4605.030273
446.962891	4544.169922
445.080078	4555.029297
443.197266	4535.355469
441.3125	4605.924805
439.427734	4497.361816
437.542969	4475.0625
435.658203	4592.005859
433.771484	4459.660645
431.886719	4430.758789
430	4419.096191
428.111328	4432.609375
426.224609	4435.520508
424.335938	4419.89209
422.447266	4428.099121
420.558594	4423.067383
418.669922	4490.811523
416.779297	4530.743652
414.888672	4493.949707
412.998047	4496.838867
411.107422	4436.276367
409.214844	4527.723145
407.324219	4504.176758
405.431641	4443.654785
403.537109	4523.148438
401.644531	4515.462891
399.75	4498.540527
