#Wave		#Intensity
1585.210938	8799.206055
1584.209961	8831.675781
1583.208984	8779.903320
1582.208008	8690.703125
1581.206055	8783.753906
1580.204102	8697.084961
1579.202148	8830.016602
1578.200195	8940.441406
1577.198242	8671.728516
1576.195313	8699.854492
1575.192383	8850.125000
1574.189453	8703.728516
1573.186523	8726.844727
1572.182617	8752.443359
1571.178711	8855.250000
1570.174805	8547.094727
1569.170898	8689.739258
1568.166992	8697.896484
1567.162109	8499.474609
1566.158203	8649.503906
1565.153320	8719.860352
1564.147461	8623.536133
1563.142578	8435.240234
1562.136719	8644.828125
1561.130859	8695.239258
1560.125000	8633.792969
1559.119141	8572.371094
1558.113281	8689.838867
1557.106445	8814.708984
1556.099609	8822.816406
1555.092773	8915.332031
1554.084961	8975.540039
1553.078125	8859.525391
1552.070313	9078.513672
1551.062500	9049.346680
1550.054688	9238.442383
1549.045898	9263.805664
1548.038086	9423.028320
1547.029297	9336.805664
1546.020508	9701.625977
1545.011719	9645.111328
1544.001953	9856.139648
1542.992188	9886.293945
1541.982422	10003.095703
1540.972656	10159.457031
1539.962891	10204.377930
1538.952148	10256.704102
1537.942383	10348.590820
1536.931641	10363.762695
1535.919922	10529.777344
1534.909180	10334.747070
1533.897461	10278.225586
1532.886719	10219.254883
1531.874023	10014.526367
1530.862305	10103.856445
1529.850586	9736.224609
1528.837891	9632.964844
1527.825195	9430.993164
1526.812500	9542.583984
1525.799805	9387.603516
1524.786133	9163.601563
1523.772461	9016.162109
1522.758789	9053.755859
1521.745117	8935.990234
1520.731445	9005.631836
1519.716797	8875.599609
1518.702148	8844.191406
1517.687500	8778.302734
1516.672852	8719.830078
1515.657227	8730.337891
1514.642578	8900.884766
1513.626953	8879.347656
1512.610352	8939.038086
1511.594727	8762.478516
1510.579102	8792.646484
1509.562500	8815.421875
1508.545898	8675.883789
1507.529297	8769.973633
1506.511719	8650.166992
1505.494141	8827.781250
1504.477539	8651.497070
1503.458984	8598.116211
1502.441406	8711.772461
1501.423828	8680.500000
1500.405273	8646.786133
1499.386719	8721.085938
1498.368164	8594.122070
1497.348633	8778.811523
1496.330078	8968.330078
1495.310547	8787.436523
1494.291016	8746.383789
1493.271484	8764.183594
1492.250977	8693.738281
1491.231445	8745.848633
1490.210938	8663.185547
1489.190430	8744.672852
1488.168945	8728.166992
1487.148438	8758.187500
1486.126953	8744.132813
1485.105469	8757.004883
1484.083984	8804.128906
1483.061523	8770.500000
1482.040039	8663.506836
1481.017578	8673.937500
1479.995117	8960.639648
1478.971680	8968.559570
1477.949219	9020.465820
1476.925781	9043.029297
1475.902344	9141.313477
1474.878906	9354.347656
1473.855469	9166.825195
1472.831055	9365.116211
1471.806641	9482.776367
1470.782227	9554.020508
1469.757813	9825.302734
1468.733398	9915.959961
1467.708008	9904.147461
1466.682617	9858.203125
1465.657227	9956.108398
1464.631836	10268.458008
1463.605469	10453.962891
1462.579102	10546.809570
1461.552734	10663.975586
1460.526367	10997.834961
1459.500000	11187.901367
1458.472656	11151.499023
1457.445313	11307.380859
1456.417969	11502.128906
1455.390625	11409.728516
1454.362305	11477.895508
1453.334961	11519.284180
1452.306641	11159.497070
1451.277344	11307.886719
1450.249023	11101.397461
1449.219727	10785.654297
1448.191406	10589.075195
1447.162109	10441.151367
1446.131836	10419.556641
1445.102539	10356.699219
1444.072266	9922.500977
1443.041992	9835.503906
1442.011719	9697.592773
1440.981445	9608.251953
1439.950195	9562.601563
1438.918945	9228.429688
1437.887695	9447.114258
1436.856445	9440.302734
1435.825195	9166.943359
1434.792969	9194.109375
1433.760742	9281.819336
1432.728516	9163.648438
1431.696289	9047.948242
1430.663086	9043.645508
1429.629883	9003.041992
1428.596680	8894.704102
1427.563477	8858.986328
1426.530273	8922.447266
1425.496094	8939.936523
1424.461914	8754.334961
1423.427734	8870.954102
1422.393555	8825.608398
1421.358398	8785.113281
1420.323242	8739.803711
1419.288086	8537.527344
1418.252930	8929.336914
1417.217773	8456.721680
1416.181641	8669.774414
1415.145508	8737.950195
1414.109375	8813.334961
1413.073242	8717.426758
1412.036133	8710.788086
1411.000000	8571.540039
1409.962891	8642.073242
1408.924805	8719.806641
1407.887695	8896.301758
1406.849609	8713.764648
1405.812500	8832.379883
1404.773438	8979.842773
1403.735352	9124.834961
1402.697266	9240.881836
1401.658203	9176.383789
1400.619141	9378.989258
1399.580078	9410.712891
1398.540039	9521.790039
1397.500977	9454.880859
1396.460938	9363.957031
1395.420898	9527.852539
1394.380859	9566.717773
1393.339844	9252.384766
1392.298828	9416.199219
1391.257813	9407.029297
1390.216797	9585.148438
1389.175781	9283.074219
1388.133789	9264.336914
1387.091797	9173.618164
1386.049805	9375.625000
1385.007813	9366.472656
1383.964844	9410.080078
1382.922852	9410.512695
1381.879883	9422.929688
1380.835938	9569.549805
1379.792969	9553.174805
1378.749023	9709.287109
1377.706055	9738.394531
1376.661133	9654.944336
1375.617188	9870.788086
1374.573242	9749.045898
1373.528320	9852.303711
1372.483398	10070.361328
1371.438477	9876.890625
1370.392578	10068.542969
1369.347656	9693.429688
1368.301758	9784.634766
1367.255859	9978.575195
1366.208984	10033.836914
1365.163086	9895.560547
1364.116211	10170.565430
1363.069336	10101.571289
1362.022461	10094.681641
1360.974609	10094.956055
1359.927734	10002.153320
1358.879883	10031.078125
1357.832031	9988.423828
1356.783203	10026.877930
1355.735352	10189.314453
1354.686523	10118.041992
1353.637695	10247.019531
1352.588867	10306.833008
1351.539063	10640.618164
1350.490234	10481.170898
1349.440430	10762.382813
1348.390625	10781.557617
1347.339844	11084.012695
1346.290039	11260.195313
1345.239258	11488.654297
1344.188477	11628.990234
1343.137695	11757.374023
1342.085938	11923.752930
1341.034180	11923.628906
1339.982422	12125.557617
1338.930664	12068.351563
1337.878906	12213.137695
1336.826172	12167.813477
1335.773438	12364.767578
1334.720703	12231.568359
1333.667969	12167.274414
1332.614258	12019.929688
1331.561523	11875.018555
1330.507813	12033.861328
1329.453125	11815.471680
1328.399414	11718.125000
1327.344727	11333.914063
1326.290039	11447.692383
1325.235352	11165.612305
1324.180664	11386.009766
1323.125000	11141.965820
1322.070313	11156.203125
1321.014648	11307.785156
1319.958008	11066.277344
1318.902344	11059.214844
1317.845703	11172.853516
1316.789063	11101.884766
1315.732422	10716.316406
1314.675781	10773.189453
1313.618164	10574.657227
1312.560547	10378.571289
1311.502930	10201.476563
1310.445313	10274.949219
1309.386719	10027.070313
1308.329102	9909.212891
1307.270508	9644.982422
1306.210938	9496.558594
1305.152344	9588.984375
1304.092773	9504.357422
1303.033203	9348.976563
1301.973633	9295.103516
1300.914063	9378.056641
1299.853516	9295.901367
1298.792969	9258.575195
1297.732422	9122.263672
1296.671875	9049.638672
1295.611328	9059.510742
1294.549805	9064.666016
1293.488281	9168.736328
1292.426758	9025.519531
1291.364258	9011.843750
1290.302734	9120.564453
1289.240234	9017.451172
1288.177734	9170.824219
1287.114258	9100.673828
1286.051758	9042.310547
1284.988281	8946.351563
1283.924805	9221.844727
1282.861328	9041.279297
1281.796875	8928.931641
1280.732422	8976.376953
1279.667969	9059.033203
1278.603516	8859.866211
1277.539063	9125.633789
1276.473633	8917.146484
1275.408203	9065.451172
1274.342773	9051.801758
1273.277344	8956.056641
1272.210938	8918.982422
1271.145508	9034.331055
1270.079102	8969.124023
1269.011719	9072.693359
1267.945313	8873.937500
1266.877930	8790.061523
1265.810547	9048.191406
1264.743164	9008.805664
1263.674805	8936.658203
1262.607422	8733.456055
1261.539063	8661.396484
1260.470703	8764.850586
1259.401367	8716.206055
1258.333008	8730.729492
1257.263672	8754.598633
1256.194336	8544.676758
1255.125000	8447.033203
1254.054688	8456.924805
1252.985352	8406.067383
1251.915039	8217.416992
1250.843750	8295.073242
1249.773438	8484.767578
1248.702148	8167.831055
1247.630859	8306.125977
1246.559570	8367.361328
1245.488281	8218.614258
1244.416016	8307.829102
1243.343750	8110.187988
1242.271484	8115.457520
1241.199219	8165.011230
1240.125977	8205.221680
1239.053711	8035.725586
1237.980469	8157.472656
1236.906250	7983.399902
1235.833008	8119.075684
1234.758789	8180.200684
1233.684570	7996.922852
1232.610352	7934.721191
1231.536133	8058.657227
1230.460938	8138.347656
1229.385742	8048.248535
1228.310547	8016.310059
1227.235352	8109.903320
1226.159180	8150.005371
1225.083008	8059.978027
1224.006836	8151.177246
1222.930664	8179.630859
1221.853516	8043.213867
1220.777344	8136.677734
1219.700195	8165.114258
1218.622070	8103.040527
1217.544922	8465.544922
1216.466797	8199.319336
1215.388672	8097.853027
1214.310547	8376.660156
1213.232422	8411.958984
1212.153320	8213.175781
1211.074219	8593.725586
1209.995117	8487.647461
1208.916016	8351.504883
1207.835938	8648.420898
1206.755859	8558.601563
1205.675781	8471.134766
1204.595703	8467.009766
1203.514648	8451.317383
1202.434570	8451.823242
1201.353516	8336.700195
1200.271484	8427.398438
1199.190430	8460.267578
1198.108398	8407.614258
1197.026367	8311.081055
1195.944336	8383.223633
1194.862305	8330.618164
1193.779297	8264.179688
1192.696289	8322.431641
1191.613281	8096.764648
1190.530273	8249.637695
1189.446289	8125.593750
1188.362305	8151.530762
1187.278320	7967.600586
1186.194336	7998.170410
1185.109375	7924.996582
1184.024414	8013.176758
1182.939453	7937.725098
1181.854492	7876.127441
1180.768555	7899.771484
1179.683594	7879.654297
1178.597656	7691.488281
1177.510742	7786.505859
1176.424805	7916.000000
1175.337891	7734.847168
1174.250977	7767.687988
1173.164063	7738.422363
1172.077148	7642.492676
1170.989258	7638.550781
1169.901367	7692.065430
1168.813477	7699.602051
1167.724609	7720.917969
1166.636719	7693.993164
1165.547852	7761.224121
1164.458984	7709.047852
1163.369141	7711.979004
1162.280273	7747.034668
1161.190430	7759.132324
1160.100586	7970.779785
1159.010742	7943.837402
1157.919922	7942.125977
1156.829102	7862.477539
1155.738281	7963.912598
1154.647461	7909.496582
1153.555664	7935.281250
1152.464844	7999.988281
1151.373047	7785.312012
1150.280273	8058.349121
1149.188477	7727.021973
1148.095703	7910.708008
1147.002930	7778.595215
1145.910156	7756.330078
1144.817383	7775.236816
1143.723633	7748.408203
1142.629883	7568.438965
1141.536133	7715.352051
1140.441406	7640.569336
1139.347656	7675.468262
1138.252930	7616.712402
1137.158203	7626.482910
1136.062500	7629.399902
1134.967773	7657.421387
1133.872070	7512.005371
1132.776367	7590.229492
1131.679688	7677.542969
1130.583984	7707.807129
1129.487305	7635.461426
1128.390625	7574.542969
1127.292969	7689.128906
1126.196289	7591.769043
1125.098633	7672.130859
1124.000977	7572.538086
1122.903320	7602.774902
1121.804688	7639.827148
1120.706055	7542.580078
1119.607422	7688.851074
1118.508789	7543.859863
1117.409180	7492.185059
1116.310547	7617.903809
1115.210938	7627.618652
1114.110352	7600.960449
1113.010742	7408.418945
1111.910156	7665.821777
1110.809570	7682.329590
1109.708984	7553.482910
1108.607422	7590.441895
1107.506836	7572.902344
1106.405273	7505.439941
1105.303711	7519.692383
1104.201172	7488.566406
1103.098633	7532.300293
1101.996094	7430.888184
1100.893555	7556.229492
1099.791016	7448.055664
1098.687500	7410.177734
1097.583984	7449.346191
1096.480469	7542.860352
1095.376953	7391.752930
1094.272461	7419.577148
1093.167969	7411.170898
1092.063477	7366.556641
1090.958008	7444.145020
1089.853516	7557.893555
1088.748047	7626.358398
1087.642578	7688.009277
1086.536133	7573.298828
1085.430664	7888.074707
1084.324219	7725.916016
1083.217773	7787.488770
1082.110352	7880.655762
1081.003906	7973.781738
1079.896484	7913.340332
1078.789063	8033.503906
1077.680664	7853.467285
1076.573242	7960.052246
1075.464844	7985.382813
1074.356445	8096.401855
1073.247070	8013.461426
1072.138672	7889.979004
1071.029297	7897.270020
1069.919922	7866.250488
1068.809570	7855.519531
1067.700195	7842.540039
1066.589844	7716.975098
1065.479492	7598.217773
1064.368164	7749.611816
1063.257813	7590.392090
1062.146484	7505.486328
1061.035156	7735.526855
1059.922852	7612.394531
1058.811523	7376.896973
1057.699219	7426.982422
1056.586914	7573.682617
1055.473633	7621.454590
1054.361328	7285.070801
1053.248047	7550.736328
1052.134766	7434.564941
1051.021484	7468.853516
1049.907227	7341.527344
1048.792969	7227.719727
1047.678711	7383.175293
1046.564453	7264.921387
1045.449219	7370.964844
1044.333984	7391.766113
1043.218750	7311.691406
1042.103516	7265.266113
1040.987305	7301.758789
1039.871094	7387.514648
1038.754883	7397.088867
1037.638672	7359.638672
1036.521484	7306.535156
1035.404297	7441.448242
1034.287109	7583.014160
1033.169922	7319.612305
1032.051758	7309.055664
1030.933594	7356.641113
1029.815430	7500.333984
1028.697266	7362.343750
1027.578125	7358.488281
1026.458984	7309.952148
1025.339844	7384.284668
1024.220703	7302.266113
1023.100586	7378.799316
1021.980469	7399.494629
1020.860352	7380.010742
1019.740234	7452.011719
1018.619141	7376.757324
1017.498047	7395.202148
1016.376953	7360.125977
1015.255859	7345.127441
1014.133789	7200.871094
1013.011719	7457.752441
1011.889648	7358.087402
1010.767578	7334.191406
1009.644531	7339.251953
1008.521484	7295.333008
1007.398438	7231.401367
1006.274414	7407.822754
1005.151367	7412.860352
1004.027344	7471.277344
1002.902344	7300.619629
1001.778320	7321.238281
1000.653320	7390.748535
999.528320	7373.558105
998.403320	7336.378418
997.278320	7436.935059
996.152344	7453.056152
995.026367	7349.271973
993.900391	7405.360840
992.773438	7565.732910
991.646484	7479.741211
990.519531	7449.246094
989.392578	7538.528320
988.265625	7592.292480
987.137695	7728.057129
986.009766	7502.488281
984.881836	7791.108398
983.752930	7565.624512
982.624023	7526.293457
981.495117	7562.269043
980.366211	7511.884766
979.236328	7592.115723
978.106445	7490.848145
976.976563	7449.360840
975.846680	7345.956543
974.715820	7494.706055
973.585938	7457.666016
972.454102	7336.642578
971.323242	7346.062500
970.191406	7381.992188
969.060547	7409.068848
967.927734	7334.540039
966.795898	7273.292480
965.663086	7322.448730
964.530273	7371.583008
963.397461	7343.464355
962.264648	7341.830566
961.130859	7379.897461
959.997070	7360.614258
958.863281	7231.108398
957.729492	7189.824707
956.594727	7344.680664
955.459961	7404.732910
954.325195	7314.977539
953.189453	7317.751953
952.053711	7362.356445
950.917969	7248.455566
949.782227	7268.846680
948.646484	7397.037109
947.509766	7285.402832
946.373047	7274.980957
945.235352	7213.993164
944.098633	7333.286133
942.960938	7298.683594
941.823242	7261.898438
940.685547	7178.997559
939.546875	7289.404297
938.408203	7410.739746
937.269531	7349.812012
936.129883	7337.196289
934.991211	7469.409180
933.851563	7305.397949
932.711914	7422.204590
931.571289	7455.630859
930.431641	7342.154297
929.291016	7487.366699
928.149414	7450.630371
927.008789	7444.582031
925.867188	7475.771973
924.725586	7585.783691
923.583984	7492.130859
922.441406	7275.940430
921.299805	7289.630371
920.157227	7349.260254
919.013672	7255.741699
917.871094	7442.193848
916.727539	7364.000488
915.583984	7145.938965
914.439453	7290.764648
913.295898	7241.060547
912.151367	7112.736328
911.006836	7104.589355
909.861328	7164.134277
908.716797	7057.741699
907.571289	7108.539551
906.424805	7113.490723
905.279297	7018.086914
904.132813	7090.667969
902.986328	7030.200684
901.839844	7176.868164
900.692383	7186.154297
899.545898	7042.897949
898.398438	7174.211914
897.250000	7150.818359
896.102539	7064.283203
894.954102	7136.718750
893.805664	7026.281250
892.656250	6981.177734
891.507813	7040.526855
890.358398	7093.323730
889.208984	7213.511719
888.058594	7103.177734
886.908203	7127.664063
885.758789	7158.658203
884.607422	7063.618652
883.457031	7079.406250
882.305664	7103.873535
881.154297	7082.731934
880.002930	7033.378906
878.850586	7053.497559
877.698242	7132.191406
876.545898	7035.133789
875.393555	7020.535156
874.240234	6949.564941
873.086914	7028.208984
871.933594	7007.117676
870.780273	7007.704102
869.625977	7023.454590
868.471680	6987.215332
867.317383	7052.766602
866.162109	6834.682129
865.007813	6969.499023
863.852539	6978.745117
862.696289	6845.198242
861.541016	6973.430664
860.384766	7056.192871
859.228516	6907.583008
858.072266	6914.667969
856.915039	6880.690430
855.757813	6915.864258
854.600586	6903.500488
853.442383	6886.822754
852.285156	6965.151367
851.126953	6922.562988
849.968750	6972.791016
848.809570	6951.795410
847.650391	6976.107910
846.491211	6873.167480
845.332031	6957.857422
844.171875	6829.099121
843.012695	6931.000977
841.851563	6991.916992
840.691406	6962.329102
839.530273	6917.678223
838.369141	6974.247559
837.208008	6899.474609
836.046875	6751.559082
834.884766	6853.312988
833.722656	6993.742676
832.560547	7052.378418
831.397461	6930.363281
830.234375	6973.937500
829.071289	7002.445801
827.908203	7071.768555
826.744141	7033.642578
825.580078	6952.576172
824.416016	7047.628906
823.251953	6902.188965
822.086914	7007.941406
820.921875	6843.262207
819.756836	7118.465820
818.590820	6998.878418
817.425781	6939.388672
816.259766	6772.728027
815.092773	6906.227051
813.926758	6915.372559
812.759766	6885.948242
811.592773	6813.697266
810.424805	6910.657715
809.257813	6894.099121
808.089844	6776.941895
806.920898	6886.683105
805.752930	6814.510742
804.583984	6810.821289
803.415039	6896.953613
802.246094	6837.655273
801.076172	6885.264160
799.906250	6815.308594
798.736328	6858.626465
797.566406	6874.153809
796.395508	6943.065430
795.224609	6971.376465
794.053711	6892.938965
792.881836	7025.823730
791.710938	6870.594727
790.538086	6979.957031
789.366211	6999.693848
788.194336	6989.568848
787.021484	7203.285156
785.848633	7370.014648
784.674805	7197.869141
783.500977	7055.625977
782.327148	7171.157715
781.153320	6854.377441
779.979492	7031.638184
778.804688	7023.647949
777.629883	6958.208008
776.454102	7045.970703
775.279297	7025.219727
774.103516	6900.282227
772.927734	6858.313477
771.750977	6884.377930
770.575195	6882.805664
769.398438	6910.976074
768.220703	7041.085449
767.043945	7005.500000
765.866211	7037.867188
764.688477	7042.626465
763.510742	7178.950684
762.332031	7243.078125
761.153320	7179.910156
759.974609	7424.258789
758.794922	7653.654297
757.616211	7740.928223
756.436523	8010.409180
755.255859	8375.106445
754.076172	8601.954102
752.895508	9277.649414
751.714844	9804.830078
750.533203	10433.371094
749.352539	11122.995117
748.170898	11712.862305
746.988281	12308.802734
745.806641	12616.858398
744.624023	12730.254883
743.441406	12733.680664
742.258789	12479.275391
741.075195	12330.627930
739.891602	12004.609375
738.708008	11845.578125
737.523438	11659.169922
736.339844	11540.396484
735.155273	11596.842773
733.969727	11459.146484
732.785156	11028.295898
731.599609	10757.925781
730.414063	10236.766602
729.227539	9800.166992
728.041992	9218.346680
726.855469	8676.826172
725.667969	8325.145508
724.481445	8009.428223
723.293945	7773.868164
722.106445	7593.148438
720.918945	7511.429199
719.730469	7259.310547
718.541992	7217.673828
717.353516	7087.721680
716.164063	6877.926270
714.975586	6977.252441
713.786133	6908.394043
712.595703	6717.693848
711.406250	6819.087402
710.215820	6767.113281
709.025391	6765.557617
707.833984	6797.591309
706.642578	6854.795898
705.451172	6861.613281
704.259766	6878.916016
703.068359	6822.801758
701.875977	6777.197266
700.683594	6702.263672
699.490234	6868.396484
698.297852	7076.362305
697.104492	7133.393066
695.910156	7064.727539
694.716797	7385.579102
693.522461	7509.490723
692.328125	7530.785645
691.132813	7436.979004
689.938477	7564.975586
688.743164	7393.813965
687.547852	7285.463867
686.351563	7413.405273
685.155273	7125.346191
683.958984	7027.579590
682.762695	6975.819824
681.565430	7084.914063
680.368164	7016.458008
679.170898	6916.716797
677.973633	6940.169922
676.775391	7005.347168
675.577148	6801.360352
674.378906	6831.080078
673.179688	6754.432617
671.980469	6930.088379
670.781250	6776.330078
669.581055	6791.438477
668.381836	6816.956543
667.181641	6834.130371
665.980469	6782.574707
664.780273	6639.435059
663.579102	6677.451660
662.377930	6580.184082
661.175781	6747.188965
659.973633	6602.107910
658.771484	6671.289551
657.569336	6640.642090
656.367188	6682.759766
655.164063	6706.154785
653.960938	6746.159668
652.756836	6734.215820
651.552734	6859.339355
650.348633	6965.718262
649.144531	6989.018555
647.939453	6896.092285
646.735352	7091.603516
645.529297	7017.364746
644.324219	7140.172363
643.118164	7169.623047
641.912109	7016.646973
640.706055	7033.676758
639.499023	6793.781738
638.292969	6953.782715
637.084961	6877.621094
635.877930	6836.692383
634.669922	6839.251465
633.461914	6783.863281
632.253906	6815.398926
631.044922	6654.543945
629.836914	6520.647949
628.626953	6591.505859
627.417969	6651.995117
626.208008	6590.523926
624.998047	6659.248535
623.788086	6573.015137
622.577148	6480.625000
621.366211	6650.498047
620.155273	6395.056152
618.944336	6459.617188
617.732422	6546.843750
616.520508	6363.800293
615.308594	6457.195313
614.095703	6439.205566
612.882813	6495.434082
611.669922	6347.605469
610.457031	6261.658203
609.243164	6342.606934
608.029297	6419.398438
606.815430	6234.660645
605.600586	6399.957520
604.385742	6303.805176
603.170898	6450.490234
601.955078	6401.683105
600.740234	6313.822266
599.524414	6394.605469
598.307617	6475.350586
597.091797	6323.821777
595.875000	6369.614746
594.658203	6236.667969
593.440430	6354.340820
592.222656	6361.081543
591.004883	6451.983887
589.787109	6298.616211
588.568359	6278.689453
587.349609	6351.083984
586.130859	6300.390137
584.912109	6243.568359
583.692383	6223.671387
582.472656	6308.306641
581.251953	6333.481445
580.032227	6348.401367
578.811523	6283.439941
577.589844	6257.412109
576.369141	6303.044434
575.147461	6399.821289
573.925781	6523.152832
572.703125	6466.406738
571.481445	6689.879883
570.258789	6477.720703
569.035156	6707.220215
567.812500	6730.189941
566.588867	6924.786621
565.365234	6788.353027
564.140625	6864.388184
562.916992	6942.429688
561.692383	6830.582520
560.466797	6818.792969
559.242188	6894.749023
558.016602	6782.989746
556.791016	6858.917480
555.564453	6684.006836
554.337891	6580.527344
553.111328	6477.095215
551.884766	6477.629883
550.657227	6268.336426
549.429688	6366.679199
548.202148	6467.012207
546.974609	6231.401367
545.746094	6179.073730
544.517578	6275.309570
543.288086	6170.102539
542.058594	6296.803223
540.829102	6157.071777
539.599609	6328.439941
538.370117	6150.148926
537.139648	6175.136719
535.909180	6242.773926
534.677734	6302.255371
533.446289	6193.173340
532.214844	6293.239746
530.983398	6182.180176
529.750977	6207.123535
528.519531	6266.542480
527.286133	6155.564941
526.053711	6184.551758
524.820313	6331.105469
523.586914	6246.537109
522.353516	6344.375977
521.119141	6326.696289
519.884766	6319.151367
518.650391	6208.339844
517.415039	6105.676758
516.179688	6114.378906
514.944336	6029.996094
513.708984	6071.079102
