#Wave		#Intensity
1585.210938	4947.836426
1584.209961	4975.310547
1583.208984	5021.725098
1582.208008	4900.847656
1581.206055	4884.855469
1580.204102	4928.764160
1579.202148	4917.762695
1578.200195	4846.896484
1577.198242	4983.063965
1576.195313	4922.187500
1575.192383	4878.787109
1574.189453	4974.983398
1573.186523	4986.412598
1572.182617	4940.533691
1571.178711	5004.274902
1570.174805	5015.690430
1569.170898	4939.954590
1568.166992	5008.634277
1567.162109	4935.419922
1566.158203	4916.979492
1565.153320	4866.204590
1564.147461	4977.125977
1563.142578	4891.543945
1562.136719	4905.448730
1561.130859	4854.717773
1560.125000	4888.505859
1559.119141	4812.951172
1558.113281	4998.271973
1557.106445	4848.214355
1556.099609	4849.693359
1555.092773	4893.377930
1554.084961	4882.436035
1553.078125	4797.048340
1552.070313	4810.942383
1551.062500	4884.365234
1550.054688	4821.350586
1549.045898	4884.822266
1548.038086	4906.122559
1547.029297	4954.678711
1546.020508	4899.135254
1545.011719	4818.839355
1544.001953	4916.923340
1542.992188	4933.240723
1541.982422	4791.086914
1540.972656	4814.849609
1539.962891	4898.002441
1538.952148	4815.330566
1537.942383	4923.187988
1536.931641	4751.500977
1535.919922	4926.095703
1534.909180	4922.603516
1533.897461	4701.583496
1532.886719	4784.638184
1531.874023	5035.678223
1530.862305	4874.061035
1529.850586	4927.389160
1528.837891	4884.389648
1527.825195	4774.749023
1526.812500	4870.025391
1525.799805	4896.163086
1524.786133	4843.335938
1523.772461	4896.602539
1522.758789	4796.937012
1521.745117	4897.040527
1520.731445	4989.707031
1519.716797	4840.788086
1518.702148	4935.891602
1517.687500	4900.376953
1516.672852	4928.920898
1515.657227	4969.766602
1514.642578	4892.408691
1513.626953	5019.403809
1512.610352	4964.218262
1511.594727	4923.819336
1510.579102	4927.719727
1509.562500	4966.053711
1508.545898	4972.402344
1507.529297	4892.696289
1506.511719	4891.682617
1505.494141	4755.500000
1504.477539	4847.885254
1503.458984	4915.666016
1502.441406	4907.279297
1501.423828	4864.518066
1500.405273	4900.336426
1499.386719	4916.502930
1498.368164	4775.603027
1497.348633	4831.045410
1496.330078	4707.392090
1495.310547	4895.262207
1494.291016	4904.055664
1493.271484	4822.139160
1492.250977	4848.101074
1491.231445	4842.195801
1490.210938	4792.192383
1489.190430	5031.249023
1488.168945	4878.369141
1487.148438	4708.413574
1486.126953	4854.315430
1485.105469	4831.282227
1484.083984	4810.705078
1483.061523	4863.529785
1482.040039	4838.062012
1481.017578	4837.059082
1479.995117	4936.297852
1478.971680	4947.496582
1477.949219	4985.573242
1476.925781	4972.322266
1475.902344	4885.790039
1474.878906	5050.859375
1473.855469	4947.252930
1472.831055	5070.736816
1471.806641	5047.717285
1470.782227	4961.257813
1469.757813	4969.987793
1468.733398	5159.226563
1467.708008	5124.012207
1466.682617	5113.195801
1465.657227	5004.870605
1464.631836	5154.946289
1463.605469	5322.017090
1462.579102	5155.243652
1461.552734	5217.504883
1460.526367	5255.386719
1459.500000	5183.687012
1458.472656	5331.103027
1457.445313	5247.247559
1456.417969	5212.092285
1455.390625	5376.439453
1454.362305	5261.006348
1453.334961	5259.914063
1452.306641	5251.527832
1451.277344	5228.560547
1450.249023	5273.649902
1449.219727	5432.917969
1448.191406	5383.204590
1447.162109	5321.368164
1446.131836	5223.133301
1445.102539	5173.494141
1444.072266	5259.799316
1443.041992	5261.133301
1442.011719	5323.121582
1440.981445	5200.729980
1439.950195	5262.704590
1438.918945	5225.240723
1437.887695	5180.519043
1436.856445	5247.305664
1435.825195	5163.826660
1434.792969	5203.938477
1433.760742	5118.080566
1432.728516	5172.714844
1431.696289	5096.583008
1430.663086	5165.722656
1429.629883	5050.900391
1428.596680	5107.921875
1427.563477	5099.602051
1426.530273	5033.237305
1425.496094	5075.717285
1424.461914	4898.172363
1423.427734	4979.336426
1422.393555	5041.133301
1421.358398	4974.848145
1420.323242	4952.072266
1419.288086	4972.777832
1418.252930	5128.694336
1417.217773	4973.122070
1416.181641	4947.950195
1415.145508	4949.333496
1414.109375	5061.696289
1413.073242	4843.550781
1412.036133	5016.179199
1411.000000	4901.812012
1409.962891	4850.167969
1408.924805	5070.888184
1407.887695	4985.495605
1406.849609	4868.819336
1405.812500	4993.052734
1404.773438	5037.766113
1403.735352	5048.754395
1402.697266	5156.021973
1401.658203	4960.012207
1400.619141	5084.095703
1399.580078	5044.545898
1398.540039	5098.811523
1397.500977	5071.297852
1396.460938	5053.411621
1395.420898	5249.452637
1394.380859	4909.520996
1393.339844	5031.029297
1392.298828	5145.280273
1391.257813	4961.685547
1390.216797	4960.650391
1389.175781	5043.635742
1388.133789	5080.984375
1387.091797	5039.130859
1386.049805	4954.111328
1385.007813	5025.034668
1383.964844	5083.937500
1382.922852	5046.912109
1381.879883	5053.049316
1380.835938	5171.823242
1379.792969	5067.711426
1378.749023	5126.541992
1377.706055	5108.705566
1376.661133	5217.788574
1375.617188	5049.112793
1374.573242	5014.547363
1373.528320	5226.483398
1372.483398	5203.857422
1371.438477	5231.474609
1370.392578	5213.639648
1369.347656	5164.728027
1368.301758	5099.102539
1367.255859	5184.078613
1366.208984	5032.450684
1365.163086	5100.681152
1364.116211	5044.676758
1363.069336	5029.292969
1362.022461	4997.201660
1360.974609	5039.123535
1359.927734	5076.253906
1358.879883	5201.653320
1357.832031	5210.106934
1356.783203	5068.295898
1355.735352	5033.850586
1354.686523	5090.014160
1353.637695	5053.194336
1352.588867	5087.881836
1351.539063	5067.755371
1350.490234	5240.585449
1349.440430	5201.381836
1348.390625	5240.770020
1347.339844	5349.178711
1346.290039	5324.256348
1345.239258	5285.066406
1344.188477	5381.500977
1343.137695	5370.857910
1342.085938	5495.770508
1341.034180	5344.829102
1339.982422	5407.889160
1338.930664	5330.703613
1337.878906	5372.354492
1336.826172	5366.476074
1335.773438	5408.101563
1334.720703	5352.350098
1333.667969	5427.197754
1332.614258	5404.695801
1331.561523	5510.350586
1330.507813	5279.050293
1329.453125	5415.523438
1328.399414	5336.122559
1327.344727	5344.485840
1326.290039	5253.279297
1325.235352	5259.285645
1324.180664	5424.053223
1323.125000	5285.503906
1322.070313	5286.761230
1321.014648	5160.139160
1319.958008	5116.436523
1318.902344	5162.703125
1317.845703	5227.882324
1316.789063	5082.448730
1315.732422	5147.616699
1314.675781	5101.596191
1313.618164	5240.035645
1312.560547	5097.084473
1311.502930	5237.829590
1310.445313	5213.095215
1309.386719	5108.041016
1308.329102	5305.385742
1307.270508	5238.141602
1306.210938	5121.341797
1305.152344	5188.721680
1304.092773	5178.187500
1303.033203	5099.227051
1301.973633	5105.229492
1300.914063	5130.098633
1299.853516	5086.569824
1298.792969	5118.504395
1297.732422	5079.709961
1296.671875	5163.479004
1295.611328	4962.114258
1294.549805	5097.696777
1293.488281	4988.282227
1292.426758	4944.845215
1291.364258	4955.572266
1290.302734	4886.268555
1289.240234	4932.300781
1288.177734	4945.375488
1287.114258	4901.991211
1286.051758	4999.727051
1284.988281	4982.212402
1283.924805	5056.382324
1282.861328	4928.401855
1281.796875	4880.365723
1280.732422	5060.224121
1279.667969	4925.276855
1278.603516	4881.967285
1277.539063	4970.148438
1276.473633	4870.513184
1275.408203	4961.005371
1274.342773	4948.224609
1273.277344	4893.225098
1272.210938	4993.035156
1271.145508	4909.911621
1270.079102	4995.609863
1269.011719	5015.645508
1267.945313	4881.017090
1266.877930	4802.671875
1265.810547	4876.607422
1264.743164	4898.991699
1263.674805	4865.175781
1262.607422	4812.646973
1261.539063	4722.696289
1260.470703	4702.976563
1259.401367	4650.514648
1258.333008	4885.747070
1257.263672	4905.755371
1256.194336	4904.714355
1255.125000	4737.724609
1254.054688	4816.170898
1252.985352	4763.749512
1251.915039	4753.395020
1250.843750	4829.451660
1249.773438	4716.354004
1248.702148	4799.388672
1247.630859	4733.021484
1246.559570	4736.682617
1245.488281	4754.338867
1244.416016	4809.304688
1243.343750	4847.924316
1242.271484	4707.012207
1241.199219	4636.085449
1240.125977	4674.715820
1239.053711	4888.069336
1237.980469	4714.655762
1236.906250	4702.008301
1235.833008	4759.217285
1234.758789	4769.843750
1233.684570	4785.120117
1232.610352	4686.372070
1231.536133	4862.180664
1230.460938	4682.050293
1229.385742	4801.974121
1228.310547	4670.755859
1227.235352	4618.623535
1226.159180	4852.355469
1225.083008	4704.945313
1224.006836	4762.015625
1222.930664	4756.355469
1221.853516	4674.073242
1220.777344	4793.791504
1219.700195	4788.126953
1218.622070	4722.132813
1217.544922	4769.844238
1216.466797	4666.769531
1215.388672	4688.962891
1214.310547	4718.102051
1213.232422	4853.855469
1212.153320	4813.421875
1211.074219	4673.374023
1209.995117	4667.742676
1208.916016	4759.385254
1207.835938	4751.421387
1206.755859	4713.365723
1205.675781	4633.664551
1204.595703	4771.515137
1203.514648	4726.537598
1202.434570	4831.926270
1201.353516	4678.264648
1200.271484	4790.554199
1199.190430	4759.478516
1198.108398	4689.128418
1197.026367	4618.807617
1195.944336	4654.779785
1194.862305	4695.354980
1193.779297	4705.895020
1192.696289	4665.640625
1191.613281	4690.030273
1190.530273	4569.030273
1189.446289	4791.839355
1188.362305	4691.627930
1187.278320	4704.458984
1186.194336	4724.200684
1185.109375	4778.510254
1184.024414	4671.472168
1182.939453	4681.990723
1181.854492	4611.876953
1180.768555	4555.611816
1179.683594	4487.856934
1178.597656	4648.043945
1177.510742	4665.458984
1176.424805	4597.723145
1175.337891	4520.813477
1174.250977	4595.748047
1173.164063	4433.782715
1172.077148	4607.567871
1170.989258	4549.109863
1169.901367	4525.149902
1168.813477	4581.619141
1167.724609	4608.200195
1166.636719	4487.779785
1165.547852	4587.848145
1164.458984	4690.168457
1163.369141	4696.044434
1162.280273	4578.001953
1161.190430	4602.252930
1160.100586	4553.092773
1159.010742	4526.886230
1157.919922	4567.181152
1156.829102	4577.658203
1155.738281	4583.546875
1154.647461	4564.228516
1153.555664	4629.677734
1152.464844	4539.357910
1151.373047	4499.452148
1150.280273	4644.997070
1149.188477	4598.218750
1148.095703	4608.668457
1147.002930	4655.717773
1145.910156	4554.070313
1144.817383	4566.808594
1143.723633	4581.826660
1142.629883	4596.837891
1141.536133	4552.423340
1140.441406	4617.700684
1139.347656	4582.437500
1138.252930	4659.098633
1137.158203	4738.009766
1136.062500	4561.203125
1134.967773	4562.499023
1133.872070	4671.043457
1132.776367	4612.998047
1131.679688	4600.595215
1130.583984	4649.769043
1129.487305	4607.723633
1128.390625	4629.520508
1127.292969	4639.913086
1126.196289	4700.426270
1125.098633	4674.350586
1124.000977	4625.511230
1122.903320	4496.999023
1121.804688	4464.154297
1120.706055	4633.884766
1119.607422	4500.901855
1118.508789	4595.475586
1117.409180	4539.891113
1116.310547	4536.632324
1115.210938	4587.938477
1114.110352	4702.866699
1113.010742	4424.598633
1111.910156	4539.511719
1110.809570	4488.552246
1109.708984	4512.559082
1108.607422	4454.814941
1107.506836	4585.510742
1106.405273	4616.288086
1105.303711	4599.401367
1104.201172	4562.104492
1103.098633	4524.823242
1101.996094	4587.332031
1100.893555	4547.793945
1099.791016	4549.071289
1098.687500	4609.266602
1097.583984	4576.544922
1096.480469	4498.534668
1095.376953	4533.789551
1094.272461	4503.368652
1093.167969	4549.924805
1092.063477	4659.828125
1090.958008	4455.173828
1089.853516	4540.165527
1088.748047	4620.596191
1087.642578	4488.440918
1086.536133	4645.710449
1085.430664	4646.957520
1084.324219	4539.738281
1083.217773	4545.525879
1082.110352	4661.987305
1081.003906	4631.613281
1079.896484	4639.633301
1078.789063	4586.704102
1077.680664	4508.973633
1076.573242	4532.807617
1075.464844	4585.956055
1074.356445	4510.530273
1073.247070	4500.525879
1072.138672	4542.373535
1071.029297	4532.365723
1069.919922	4551.654785
1068.809570	4604.726563
1067.700195	4551.916504
1066.589844	4512.640137
1065.479492	4455.369629
1064.368164	4611.953125
1063.257813	4604.192871
1062.146484	4625.683594
1061.035156	4557.190430
1059.922852	4639.400391
1058.811523	4568.684570
1057.699219	4547.453125
1056.586914	4598.146484
1055.473633	4543.213867
1054.361328	4497.290039
1053.248047	4615.336914
1052.134766	4569.416992
1051.021484	4570.659668
1049.907227	4634.745605
1048.792969	4517.044434
1047.678711	4509.322754
1046.564453	4526.276855
1045.449219	4484.919434
1044.333984	4461.515137
1043.218750	4541.228516
1042.103516	4605.219727
1040.987305	4566.119629
1039.871094	4612.156738
1038.754883	4458.856445
1037.638672	4439.964355
1036.521484	4609.116211
1035.404297	4523.057617
1034.287109	4450.461914
1033.169922	4512.120605
1032.051758	4417.192383
1030.933594	4478.830566
1029.815430	4482.315918
1028.697266	4423.217285
1027.578125	4451.293457
1026.458984	4443.610840
1025.339844	4473.902832
1024.220703	4497.481445
1023.100586	4440.675293
1021.980469	4401.750488
1020.860352	4505.667480
1019.740234	4475.669434
1018.619141	4557.216797
1017.498047	4547.291016
1016.376953	4343.388672
1015.255859	4605.473145
1014.133789	4566.569336
1013.011719	4463.064941
1011.889648	4542.276855
1010.767578	4494.502930
1009.644531	4413.348633
1008.521484	4405.695313
1007.398438	4406.948242
1006.274414	4546.164551
1005.151367	4480.642578
1004.027344	4363.991211
1002.902344	4429.739258
1001.778320	4462.109375
1000.653320	4369.988281
999.528320	4653.475098
998.403320	4425.822266
997.278320	4509.252930
996.152344	4521.580078
995.026367	4380.698730
993.900391	4421.905762
992.773438	4398.733398
991.646484	4477.638184
990.519531	4472.209473
989.392578	4486.744141
988.265625	4603.270996
987.137695	4482.539063
986.009766	4505.925781
984.881836	4582.483398
983.752930	4419.742676
982.624023	4432.052246
981.495117	4364.636230
980.366211	4447.797363
979.236328	4579.617188
978.106445	4507.786621
976.976563	4511.210938
975.846680	4490.301758
974.715820	4506.996582
973.585938	4419.767090
972.454102	4480.679199
971.323242	4428.853516
970.191406	4522.878906
969.060547	4437.930664
967.927734	4357.437012
966.795898	4440.373535
965.663086	4300.310547
964.530273	4500.196777
963.397461	4395.486816
962.264648	4460.691406
961.130859	4450.876465
959.997070	4505.013184
958.863281	4594.399414
957.729492	4412.639160
956.594727	4563.706543
955.459961	4549.471191
954.325195	4524.229004
953.189453	4419.719727
952.053711	4372.500000
950.917969	4463.974609
949.782227	4498.190430
948.646484	4422.380859
947.509766	4474.187500
946.373047	4396.217285
945.235352	4296.294434
944.098633	4436.022461
942.960938	4314.157227
941.823242	4462.606934
940.685547	4441.839844
939.546875	4320.053711
938.408203	4330.067871
937.269531	4471.793945
936.129883	4472.990234
934.991211	4395.189941
933.851563	4370.075684
932.711914	4437.092285
931.571289	4453.643066
930.431641	4452.647461
929.291016	4313.564941
928.149414	4428.742188
927.008789	4445.278320
925.867188	4385.143555
924.725586	4338.174805
923.583984	4424.779785
922.441406	4428.166992
921.299805	4418.421875
920.157227	4467.754883
919.013672	4357.382324
917.871094	4352.032227
916.727539	4372.921875
915.583984	4282.317383
914.439453	4368.776855
913.295898	4365.612305
912.151367	4351.526367
911.006836	4291.582520
909.861328	4345.208008
908.716797	4337.684082
907.571289	4373.814453
906.424805	4392.471191
905.279297	4328.220215
904.132813	4335.973145
902.986328	4398.236328
901.839844	4331.846191
900.692383	4335.232422
899.545898	4340.795898
898.398438	4298.426758
897.250000	4312.708008
896.102539	4411.910645
894.954102	4434.867676
893.805664	4412.104004
892.656250	4406.759766
891.507813	4327.443848
890.358398	4332.996094
889.208984	4364.642090
888.058594	4448.454590
886.908203	4410.500000
885.758789	4320.404785
884.607422	4260.767578
883.457031	4303.253906
882.305664	4373.953125
881.154297	4453.305664
880.002930	4315.542480
878.850586	4342.784180
877.698242	4313.598145
876.545898	4353.843262
875.393555	4270.445801
874.240234	4243.462891
873.086914	4222.995605
871.933594	4397.600586
870.780273	4249.260254
869.625977	4291.629883
868.471680	4372.965820
867.317383	4281.031738
866.162109	4256.250977
865.007813	4266.112793
863.852539	4247.837891
862.696289	4320.436523
861.541016	4131.281738
860.384766	4420.122070
859.228516	4304.537598
858.072266	4312.210938
856.915039	4324.202637
855.757813	4204.395996
854.600586	4276.887207
853.442383	4288.877441
852.285156	4350.520508
851.126953	4353.854004
849.968750	4350.710938
848.809570	4375.618164
847.650391	4402.670410
846.491211	4354.228516
845.332031	4372.647949
844.171875	4233.696777
843.012695	4400.840820
841.851563	4231.779785
840.691406	4258.825684
839.530273	4285.858887
838.369141	4250.436523
837.208008	4202.113770
836.046875	4175.334961
834.884766	4273.368652
833.722656	4324.030273
832.560547	4215.511230
831.397461	4167.249512
830.234375	4162.004395
829.071289	4178.254883
827.908203	4254.664551
826.744141	4126.947754
825.580078	4106.680664
824.416016	4137.958984
823.251953	4145.607422
822.086914	4217.643066
820.921875	4178.059082
819.756836	4301.543945
818.590820	4182.596680
817.425781	4260.990234
816.259766	4090.650635
815.092773	4121.873047
813.926758	4157.366699
812.759766	4182.131836
811.592773	4198.316895
810.424805	4103.135742
809.257813	4181.420898
808.089844	4193.312988
806.920898	4036.135742
805.752930	4129.358398
804.583984	4098.471680
803.415039	4138.172363
802.246094	4092.330322
801.076172	4078.572998
799.906250	4071.233154
798.736328	4072.442871
797.566406	4161.233887
796.395508	4079.130859
795.224609	4076.066650
794.053711	4164.795410
792.881836	4037.927979
791.710938	4158.629883
790.538086	4087.285400
789.366211	4111.946777
788.194336	4151.522461
787.021484	4225.187988
785.848633	4115.528809
784.674805	4040.011719
783.500977	4130.694336
782.327148	4206.425781
781.153320	4022.342041
779.979492	3998.006836
778.804688	4073.715820
777.629883	4089.809326
776.454102	4099.512695
775.279297	4075.180420
774.103516	4093.387939
772.927734	4109.460449
771.750977	4134.027832
770.575195	4048.084229
769.398438	4049.283691
768.220703	4061.102539
767.043945	4111.139160
765.866211	4067.738770
764.688477	4005.254883
763.510742	4114.686523
762.332031	4137.083496
761.153320	4017.355957
759.974609	4124.588379
758.794922	4060.041016
757.616211	4135.419434
756.436523	4185.333008
755.255859	4057.254883
754.076172	4090.217529
752.895508	4142.223633
751.714844	4033.297607
750.533203	4023.907227
749.352539	4103.403320
748.170898	4070.727295
746.988281	4069.794922
745.806641	4204.209473
744.624023	4199.018066
743.441406	4166.348633
742.258789	4241.474121
741.075195	4339.806641
739.891602	4488.790039
738.708008	4688.390625
737.523438	4816.111328
736.339844	4971.215332
735.155273	5088.259766
733.969727	5099.752441
732.785156	5159.757324
731.599609	5230.279297
730.414063	5070.941895
729.227539	5004.430176
728.041992	5007.497070
726.855469	4770.358398
725.667969	4585.992188
724.481445	4481.741699
723.293945	4484.923828
722.106445	4342.851563
720.918945	4337.645020
719.730469	4277.732910
718.541992	4262.024902
717.353516	4120.132324
716.164063	4054.002441
714.975586	4065.684326
713.786133	4085.767334
712.595703	4057.512207
711.406250	4128.005859
710.215820	3946.432617
709.025391	4113.509277
707.833984	4018.094482
706.642578	4023.467285
705.451172	3976.378174
704.259766	3941.897949
703.068359	3934.698975
701.875977	3990.410400
700.683594	4012.552979
699.490234	3917.312500
698.297852	3960.415771
697.104492	3969.979492
695.910156	3941.837402
694.716797	4030.972412
693.522461	3992.361084
692.328125	3932.836670
691.132813	3971.689941
689.938477	3966.591309
688.743164	3951.036621
687.547852	4027.498047
686.351563	4020.298584
685.155273	4011.011719
683.958984	4143.827148
682.762695	3982.004395
681.565430	4014.506104
680.368164	3948.845947
679.170898	3935.409424
677.973633	3984.596680
676.775391	4094.278076
675.577148	4053.694336
674.378906	4077.789795
673.179688	4085.190918
671.980469	4061.315430
670.781250	3962.412598
669.581055	3980.253906
668.381836	4004.336914
667.181641	4026.325439
665.980469	4119.107422
664.780273	4161.878418
663.579102	4165.081543
662.377930	4170.363281
661.175781	4175.642578
659.973633	4176.758789
658.771484	4179.953613
657.569336	4127.011230
656.367188	4049.149658
655.164063	4226.935059
653.960938	4086.755615
652.756836	4106.583496
651.552734	4120.172363
650.348633	4123.373047
649.144531	4222.056152
647.939453	4032.232178
646.735352	4209.731934
645.529297	4059.409668
644.324219	4153.867676
643.118164	4159.127441
641.912109	4189.259277
640.706055	4090.889160
639.499023	4137.597656
638.292969	4070.355469
637.084961	4102.549805
635.877930	4041.557617
634.669922	4028.203369
633.461914	4097.635254
632.253906	4069.790527
631.044922	4108.151855
629.836914	4078.248779
628.626953	4071.102783
627.417969	4187.986816
626.208008	4015.486816
624.998047	4121.998535
623.788086	4073.534180
622.577148	4047.809082
621.366211	4038.613525
620.155273	4062.450195
618.944336	4014.043213
617.732422	4000.734375
616.520508	3915.232910
615.308594	4062.815430
614.095703	3938.163086
612.882813	4030.013916
611.669922	4167.162109
610.457031	4017.845947
609.243164	4004.555908
608.029297	3861.524414
606.815430	3905.928467
605.600586	3940.018799
604.385742	3967.918945
603.170898	3946.424316
601.955078	3972.252441
600.740234	3928.143555
599.524414	3993.030029
598.307617	3864.653809
597.091797	3837.041016
595.875000	3866.972656
594.658203	3861.968262
593.440430	3852.858398
592.222656	3925.883789
591.004883	3957.819092
589.787109	3995.896240
588.568359	3931.362549
587.349609	3930.451416
586.130859	3896.725830
584.912109	3889.671143
583.692383	3884.669678
582.472656	3957.550537
581.251953	3827.545654
580.032227	3892.211182
578.811523	3915.885498
577.589844	3906.787354
576.369141	3899.739990
575.147461	3964.328125
573.925781	3944.993408
572.703125	3872.479492
571.481445	3918.621338
570.258789	4103.783203
569.035156	3894.316895
567.812500	3928.158203
566.588867	3998.762939
565.365234	3924.293213
564.140625	3956.060791
562.916992	3985.771484
561.692383	3982.805420
560.466797	3955.349121
559.242188	3980.957520
558.016602	3977.993896
556.791016	4032.138184
555.564453	3931.289063
554.337891	4050.652832
553.111328	3976.341309
551.884766	3922.440186
550.657227	4104.874023
549.429688	4065.224609
548.202148	4015.412109
546.974609	3949.336426
545.746094	3952.490479
544.517578	4030.930176
543.288086	4038.131836
542.058594	4071.770020
540.829102	3997.623291
539.599609	4104.439453
538.370117	4009.994629
537.139648	4017.191650
535.909180	4044.700195
534.677734	4106.722656
533.446289	4085.463867
532.214844	4037.823730
530.983398	4081.537598
529.750977	4108.998047
528.519531	4041.098145
527.286133	3981.342529
526.053711	4160.885254
524.820313	4003.821045
523.586914	4090.042969
522.353516	4054.645996
521.119141	4231.978516
519.884766	4164.158691
518.650391	4163.191895
517.415039	4170.322754
516.179688	4094.468018
514.944336	4044.953613
513.708984	4191.694824
