#Wave	#Intensity
2109.007813	10988.640625
2107.496094	11028.334961
2105.984375	10839.09668
2104.470703	10866.511719
2102.958984	10905.483398
2101.445313	10891.55957
2099.933594	10712.428711
2098.419922	10767.926758
2096.90625	10706.150391
2095.390625	10680.724609
2093.876953	10694.926758
2092.361328	10842.800781
2090.845703	10710.112305
2089.332031	10593.977539
2087.814453	10601.588867
2086.298828	10544.889648
2084.783203	10646.476563
2083.265625	10528.807617
2081.748047	10633.651367
2080.230469	10600.058594
2078.712891	10558.245117
2077.195313	10486.806641
2075.677734	10477.964844
2074.158203	10447.726563
2072.638672	10412.56543
2071.119141	10441.587891
2069.599609	10593.975586
2068.080078	10553.871094
2066.560547	10522.005859
2065.039063	10360.280273
2063.517578	10413.9375
2061.996094	10437.994141
2060.474609	10508.041016
2058.953125	10351.384766
2057.429688	10365.584961
2055.908203	10397.839844
2054.384766	10274.138672
2052.861328	10296.552734
2051.337891	10565.076172
2049.814453	10393.845703
2048.289063	10347.334961
2046.765625	10576.321289
2045.240234	10362.574219
2043.714844	10445.584961
2042.189453	10553.139648
2040.664063	10169.147461
2039.136719	10335.683594
2037.609375	10474.307617
2036.083984	10345.995117
2034.556641	10428.902344
2033.029297	10395.576172
2031.5	10179.006836
2029.972656	10451.65918
2028.443359	10210.636719
2026.914063	10363.796875
2025.386719	10268.396484
2023.855469	10311.967773
2022.326172	10317.935547
2020.796875	10274.886719
2019.265625	10339.664063
2017.734375	10224.773438
2016.203125	10204.629883
2014.671875	10365.691406
2013.140625	10268.821289
2011.607422	10140.989258
2010.076172	10368.845703
2008.542969	10457.970703
2007.009766	10348.117188
2005.476563	10269.286133
2003.943359	10410.533203
2002.408203	10305.649414
2000.875	10551.100586
1999.339844	10288.225586
1997.804688	10414.691406
1996.269531	10249.650391
1994.732422	10263.746094
1993.197266	10391.762695
1991.660156	10306.564453
1990.123047	10494.709961
1988.585938	10368.862305
1987.048828	10470.729492
1985.511719	10388.836914
1983.972656	10365.496094
1982.435547	10379.541992
1980.896484	10312.34375
1979.357422	10418.986328
1977.818359	10517.462891
1976.279297	10344.736328
1974.738281	10280.848633
1973.197266	10345.208008
1971.658203	10368.972656
1970.117188	10292.141602
1968.576172	10421.335938
1967.033203	10289.390625
1965.492188	10425.015625
1963.949219	10424.422852
1962.40625	10324.97168
1960.863281	10465.363281
1959.320313	10343.266602
1957.777344	10290.864258
1956.232422	10393.930664
1954.689453	10382.011719
1953.144531	10248.705078
1951.599609	10371.132813
1950.054688	10498.362305
1948.507813	10462.166992
1946.962891	10282.057617
1945.416016	10388.205078
1943.869141	10413.483398
1942.322266	10272.285156
1940.775391	10375.135742
1939.228516	10419.78418
1937.679688	10412.730469
1936.132813	10284.570313
1934.583984	10301.763672
1933.035156	10373.829102
1931.486328	10444.25
1929.935547	10474.305664
1928.386719	10389.820313
1926.835938	10373.104492
1925.285156	10572.456055
1923.734375	10629.863281
1922.183594	10576.037109
1920.632813	10530.291016
1919.080078	10416.900391
1917.527344	10463.015625
1915.976563	10360.958984
1914.423828	10410.286133
1912.869141	10364.621094
1911.316406	10603.826172
1909.761719	10488.953125
1908.208984	10477.082031
1906.654297	10458.78125
1905.099609	10456.568359
1903.544922	10464.001953
1901.988281	10402.318359
1900.433594	10453.147461
1898.876953	10399.525391
1897.320313	10236.699219
1895.763672	10520.387695
1894.207031	10433.067383
1892.648438	10397.150391
1891.091797	10367.668945
1889.533203	10354.245117
1887.974609	10550.979492
1886.416016	10534.313477
1884.857422	10657.163086
1883.298828	10478.557617
1881.738281	10466.724609
1880.177734	10477.333008
1878.617188	10545.614258
1877.056641	10487.321289
1875.496094	10424.24707
1873.935547	10433.251953
1872.373047	10395.829102
1870.810547	10542.478516
1869.248047	10423.438477
1867.685547	10549.22168
1866.123047	10467.018555
1864.560547	10544.764648
1862.996094	10480.183594
1861.431641	10433.211914
1859.867188	10547.671875
1858.302734	10486.325195
1856.738281	10575.165039
1855.171875	10539.391602
1853.607422	10591.455078
1852.041016	10566.868164
1850.474609	10716.266602
1848.908203	10559.212891
1847.341797	10572.9375
1845.773438	10532.421875
1844.207031	10413.779297
1842.638672	10660.310547
1841.070313	10481.115234
1839.501953	10644.651367
1837.931641	10685.425781
1836.363281	10606.701172
1834.792969	10695.248047
1833.222656	10551.265625
1831.652344	10421.671875
1830.082031	10653.455078
1828.511719	10740.324219
1826.941406	10747.602539
1825.369141	10858.273438
1823.796875	10609.470703
1822.224609	10583.379883
1820.652344	10643.143555
1819.078125	10704.47168
1817.505859	10791.198242
1815.931641	10809.572266
1814.357422	10672.27832
1812.783203	10690.668945
1811.208984	10689.999023
1809.634766	10732.1875
1808.058594	10696.59375
1806.484375	10700.681641
1804.908203	10634.967773
1803.332031	10650.167969
1801.753906	10796.974609
1800.177734	10747.133789
1798.601563	10811.43457
1797.023438	10801.228516
1795.445313	10927.279297
1793.867188	10966.15625
1792.289063	10813.390625
1790.708984	10956.774414
1789.130859	10827.819336
1787.550781	10849.272461
1785.970703	10902.363281
1784.390625	10858.928711
1782.810547	11163.480469
1781.228516	10976.104492
1779.646484	10888.412109
1778.066406	11059.986328
1776.484375	11158.791992
1774.902344	10952.613281
1773.318359	11166.714844
1771.736328	11091.706055
1770.152344	11357.793945
1768.568359	11055.446289
1766.984375	11286.705078
1765.400391	11252.759766
1763.816406	11275.625
1762.230469	11199.107422
1760.646484	11346.555664
1759.060547	11161.264648
1757.474609	11396.932617
1755.888672	11317.299805
1754.300781	11459.869141
1752.714844	11402.310547
1751.126953	11327.450195
1749.539063	11452.604492
1747.951172	11579.279297
1746.363281	11411.560547
1744.775391	11465.799805
1743.185547	11623.856445
1741.595703	11714.206055
1740.007813	11744.755859
1738.416016	11827.178711
1736.826172	11815.245117
1735.236328	12046.926758
1733.644531	12124.517578
1732.052734	12099.958984
1730.462891	12117.818359
1728.869141	12222.039063
1727.277344	12285.394531
1725.685547	12353.430664
1724.091797	12444.978516
1722.498047	12454.897461
1720.904297	12867.964844
1719.310547	12785.254883
1717.716797	12770.004883
1716.121094	12812.765625
1714.527344	12786.542969
1712.931641	12771.299805
1711.335938	12908.032227
1709.740234	12985.18457
1708.142578	12949.547852
1706.546875	12924.886719
1704.949219	12840.75
1703.351563	12906.892578
1701.753906	13184.241211
1700.15625	12987.46582
1698.558594	13102.018555
1696.958984	13189.938477
1695.359375	13534.214844
1693.759766	13437.564453
1692.160156	13620.680664
1690.560547	13567.797852
1688.960938	13744.558594
1687.359375	13782.250977
1685.757813	13958.889648
1684.15625	14152.625
1682.554688	14272.922852
1680.953125	14276.137695
1679.349609	14530.522461
1677.748047	14755.163086
1676.144531	14636.637695
1674.541016	15132.438477
1672.9375	15224.3125
1671.332031	15362.898438
1669.728516	15612.048828
1668.123047	15914.056641
1666.517578	16096.013672
1664.912109	16477.199219
1663.306641	16635.605469
1661.701172	16873.322266
1660.09375	17124.941406
1658.486328	17616.041016
1656.878906	17702.517578
1655.271484	17863.599609
1653.664063	18245.390625
1652.056641	18613.03125
1650.447266	18901.251953
1648.837891	19371.142578
1647.228516	19716.554688
1645.619141	20403.509766
1644.009766	20560.664063
1642.398438	21008.064453
1640.789063	21118.457031
1639.177734	21927.115234
1637.566406	21840.224609
1635.955078	22207.857422
1634.341797	22589.289063
1632.730469	22686.816406
1631.117188	23001.324219
1629.503906	23298.646484
1627.890625	23699.660156
1626.277344	24215.138672
1624.662109	24561.572266
1623.048828	24858.302734
1621.433594	25449.0625
1619.818359	25802.746094
1618.203125	26307.935547
1616.587891	26650.451172
1614.970703	27026.849609
1613.353516	27607.230469
1611.738281	27780.707031
1610.121094	28108.697266
1608.501953	28436.544922
1606.884766	28929.589844
1605.267578	29121.169922
1603.648438	29366.724609
1602.029297	29505.619141
1600.410156	30048.955078
1598.791016	30130.53125
1597.169922	30411.146484
1595.550781	30267.337891
1593.929688	30726.740234
1592.308594	30866.697266
1590.6875	31234.796875
1589.064453	31200.380859
1587.443359	31535.880859
1585.820313	31710.978516
1584.197266	31676.474609
1582.574219	31811.414063
1580.951172	31649.083984
1579.328125	31234.322266
1577.703125	31199.941406
1576.080078	30862.394531
1574.455078	30555.763672
1572.830078	30360.019531
1571.203125	30521.167969
1569.578125	30597.673828
1567.951172	30299.039063
1566.324219	30267.966797
1564.697266	30233.830078
1563.070313	30215.070313
1561.443359	30018.140625
1559.816406	29957.966797
1558.1875	30270.904297
1556.558594	30230.652344
1554.929688	30179.673828
1553.300781	30549.128906
1551.669922	30596.275391
1550.041016	30686.34375
1548.410156	30807.039063
1546.779297	30504.558594
1545.148438	30700.337891
1543.517578	30857.722656
1541.884766	30711.6875
1540.251953	30577.966797
1538.621094	30510.152344
1536.988281	30205.048828
1535.353516	29811.289063
1533.720703	29635.013672
1532.085938	29085.472656
1530.453125	29013.449219
1528.818359	29051.572266
1527.183594	28367.941406
1525.546875	27994.941406
1523.912109	27889.580078
1522.275391	27541.289063
1520.640625	27055.644531
1519.003906	26912.357422
1517.365234	26704.990234
1515.728516	26545.041016
1514.091797	26595.8125
1512.453125	26550.414063
1510.814453	26471.462891
1509.175781	26253.724609
1507.537109	26158.089844
1505.896484	26021.324219
1504.257813	25715.394531
1502.617188	25994.878906
1500.976563	25550.412109
1499.335938	25493.109375
1497.693359	25352.052734
1496.052734	25256.742188
1494.410156	24823.464844
1492.767578	24696.337891
1491.125	24796.025391
1489.482422	24338.777344
1487.837891	24324.400391
1486.195313	24071.248047
1484.550781	24376.25
1482.90625	24182.480469
1481.261719	23871.759766
1479.617188	24208.513672
1477.970703	23689.777344
1476.324219	23652.763672
1474.677734	23691.695313
1473.03125	23552.96875
1471.384766	23154.732422
1469.738281	23154.28125
1468.089844	22718.367188
1466.441406	22818.126953
1464.792969	22521.998047
1463.144531	22799.160156
1461.496094	22742.685547
1459.845703	22765.046875
1458.197266	22573.736328
1456.546875	22518.855469
1454.896484	22309.501953
1453.244141	21968.488281
1451.59375	21963.730469
1449.941406	22018.007813
1448.291016	21495.669922
1446.638672	21540.941406
1444.984375	21177.763672
1443.332031	21217.03125
1441.679688	21280.472656
1440.025391	21011.308594
1438.371094	21094.412109
1436.716797	21263.607422
1435.0625	21230.289063
1433.40625	21423.542969
1431.75	21154.630859
1430.095703	20919.044922
1428.439453	20916.011719
1426.78125	20949.197266
1425.125	20562.927734
1423.466797	20771.148438
1421.810547	20495.175781
1420.152344	20380.652344
1418.494141	20539.025391
1416.833984	20513.458984
1415.175781	20412.5625
1413.515625	20477.417969
1411.855469	20468.443359
1410.195313	20881.097656
1408.535156	20993.980469
1406.875	21011.986328
1405.212891	21200.027344
1403.550781	21315.769531
1401.888672	21332.183594
1400.226563	21598.226563
1398.564453	21477.748047
1396.900391	21569.269531
1395.238281	21324.107422
1393.574219	21157.183594
1391.910156	20940.755859
1390.244141	20826.548828
1388.580078	20772.453125
1386.914063	20613.292969
1385.248047	20748.375
1383.582031	20640.304688
1381.916016	20862.332031
1380.25	21070.759766
1378.582031	21129.138672
1376.916016	21257.953125
1375.248047	21280.287109
1373.578125	21137.761719
1371.910156	21209.550781
1370.242188	21345.716797
1368.572266	21004.082031
1366.902344	21146.21875
1365.232422	20888.603516
1363.5625	20898.996094
1361.890625	20955.767578
1360.220703	20915.273438
1358.548828	20856.847656
1356.876953	20831.341797
1355.205078	21012.154297
1353.53125	21059.861328
1351.859375	21330.201172
1350.185547	21501.816406
1348.511719	21733.101563
1346.837891	22032.976563
1345.164063	22476.048828
1343.488281	22720.394531
1341.8125	22946.722656
1340.138672	23356.472656
1338.460938	23503.496094
1336.785156	23769.763672
1335.109375	23816.726563
1333.431641	24522.570313
1331.753906	24122.220703
1330.076172	24483.474609
1328.398438	24525.761719
1326.720703	24378.869141
1325.041016	24354.144531
1323.361328	24648.025391
1321.681641	24660.460938
1320.001953	24857.412109
1318.322266	24860.863281
1316.640625	24367.5
1314.960938	24150.957031
1313.279297	23876.523438
1311.597656	23634.910156
1309.914063	23405.289063
1308.232422	23345.150391
1306.548828	23051.816406
1304.865234	22819.498047
1303.181641	22649.644531
1301.498047	22343.289063
1299.814453	22442.248047
1298.128906	22121.230469
1296.443359	22172.716797
1294.757813	21764.388672
1293.072266	21746.232422
1291.386719	21524.972656
1289.699219	21171.894531
1288.011719	20906.398438
1286.324219	20632.130859
1284.636719	20255.777344
1282.949219	20211.308594
1281.259766	20146.130859
1279.572266	19779.009766
1277.882813	19527.482422
1276.193359	19435.861328
1274.501953	19211.144531
1272.8125	19297.101563
1271.121094	19100.603516
1269.429688	18793.322266
1267.738281	18682.740234
1266.046875	18461.386719
1264.353516	18333.197266
1262.662109	18290.726563
1260.96875	18034.160156
1259.275391	17954.863281
1257.582031	17980.394531
1255.886719	17774.236328
1254.193359	17836.675781
1252.498047	17968.410156
1250.802734	18004.232422
1249.107422	18163.880859
1247.410156	18252.703125
1245.714844	18537.484375
1244.017578	18757.308594
1242.320313	19009.441406
1240.623047	18958.082031
1238.925781	18808.095703
1237.226563	18516.857422
1235.527344	18428.84375
1233.828125	18164.300781
1232.128906	18270.582031
1230.429688	17753.222656
1228.728516	17593.400391
1227.029297	17458.638672
1225.328125	17290.130859
1223.626953	17375.908203
1221.923828	17059.111328
1220.222656	16958.365234
1218.519531	16725.501953
1216.816406	16589.634766
1215.113281	16446.488281
1213.410156	16453.085938
1211.707031	16676.8125
1210.001953	16677.484375
1208.296875	16716.28125
1206.591797	16788.78125
1204.886719	17037.144531
1203.179688	17026.005859
1201.474609	17263.945313
1199.767578	17159.005859
1198.060547	17149.304688
1196.353516	17135.214844
1194.644531	17172.361328
1192.9375	17168.513672
1191.228516	16943.722656
1189.519531	17023.306641
1187.810547	17197.917969
1186.099609	17479.189453
1184.390625	17296.919922
1182.679688	17675.962891
1180.96875	17558.019531
1179.257813	17364.160156
1177.544922	17049.160156
1175.833984	16854.039063
1174.121094	16657.544922
1172.408203	16202.791016
1170.695313	16240.007813
1168.982422	16075.874023
1167.267578	15760.119141
1165.552734	15696.78418
1163.837891	15490.598633
1162.123047	15542.501953
1160.408203	15428.249023
1158.691406	15228.085938
1156.976563	15036.750977
1155.259766	14889.19043
1153.541016	14743.150391
1151.824219	14492.368164
1150.107422	14400.326172
1148.388672	14283.59082
1146.669922	14181.452148
1144.951172	13935.379883
1143.230469	13980.216797
1141.511719	13850.591797
1139.791016	13510.289063
1138.070313	13492.708008
1136.349609	13405.404297
1134.628906	13406.732422
1132.90625	13209.130859
1131.185547	13150.980469
1129.462891	12895.467773
1127.740234	12933.180664
1126.015625	12889.634766
1124.292969	12899.772461
1122.568359	12582.189453
1120.84375	12564.844727
1119.119141	12461.990234
1117.394531	12495.395508
1115.667969	12437.512695
1113.941406	12353.583008
1112.214844	12266.793945
1110.488281	12297.311523
1108.761719	12025.300781
1107.033203	11970.477539
1105.306641	11870.828125
1103.578125	11745.186523
1101.849609	11809.042969
1100.119141	11638.649414
1098.390625	11638.898438
1096.660156	11211.384766
1094.929688	11234.844727
1093.199219	11067.621094
1091.46875	11075.214844
1089.736328	11074.140625
1088.003906	10983.569336
1086.273438	10888.708984
1084.539063	10795.333008
1082.806641	10831.825195
1081.074219	10885.604492
1079.339844	10907.638672
1077.605469	10693.250977
1075.871094	10834.935547
1074.134766	10946.295898
1072.400391	10693.147461
1070.664063	10856.334961
1068.927734	10737.230469
1067.191406	10697.353516
1065.455078	10565.382813
1063.716797	10446.421875
1061.978516	10357.724609
1060.240234	10297.831055
1058.501953	10212.081055
1056.763672	10011.362305
1055.023438	10082.376953
1053.283203	9871.71875
1051.542969	9872.335938
1049.802734	9867.208008
1048.0625	9994.1875
1046.320313	9879.924805
1044.578125	9844.65332
1042.835938	10037.556641
1041.09375	9917.620117
1039.351563	10043.003906
1037.607422	9895.873047
1035.863281	10019.768555
1034.119141	9998.84082
1032.375	9975.056641
1030.628906	9922.62793
1028.884766	9864.493164
1027.138672	9862.232422
1025.392578	9817.020508
1023.646484	10019.453125
1021.898438	10020.016602
1020.152344	9783.083984
1018.404297	10003.976563
1016.65625	9901.578125
1014.90625	9922.180664
1013.158203	9957.066406
1011.408203	9799.012695
1009.658203	10001.069336
1007.908203	10011.626953
1006.158203	9945.0625
1004.40625	9941.349609
1002.65625	9753.5
1000.904297	9866.850586
999.150391	9931.638672
997.398438	9826.651367
995.646484	9871.451172
993.892578	9909.100586
992.138672	9705.832031
990.384766	9719.273438
988.628906	9685.689453
986.875	9800.263672
985.119141	9762.401367
983.363281	9865.512695
981.607422	9868.932617
979.849609	9724.342773
978.09375	9771.898438
976.335938	9916.161133
974.578125	9701.970703
972.820313	9866.085938
971.060547	9845.329102
969.300781	10012.175781
967.542969	9980.026367
965.78125	9874.023438
964.021484	9885.944336
962.261719	10180.411133
960.5	10207.868164
958.738281	10246.665039
956.976563	10257.06543
955.214844	10328.458008
953.451172	10191.337891
951.6875	10041.519531
949.923828	10066.128906
948.160156	9905.068359
946.396484	9724.245117
944.630859	9751.741211
942.865234	9617.771484
941.099609	9692.00293
939.333984	9589.25
937.568359	9674.774414
935.800781	9467.365234
934.033203	9585.412109
932.265625	9492.674805
930.498047	9569.654297
928.730469	9689.005859
926.960938	9604.786133
925.191406	9516.366211
923.421875	9726.053711
921.652344	9684.25
919.880859	9689.061523
918.109375	9576.701172
916.337891	9788.998047
914.566406	9803.655273
912.794922	9778.805664
911.021484	9859.743164
909.248047	9839.120117
907.474609	9609.871094
905.701172	9390.59375
903.927734	9371.500977
902.152344	9225.631836
900.376953	9185.458008
898.601563	9014.353516
896.826172	9060.117188
895.050781	8898.970703
893.273438	8889.862305
891.496094	8967.975586
889.71875	8839.308594
887.939453	8804.908203
886.162109	8972.952148
884.382813	8966.643555
882.603516	8859.169922
880.824219	8963.866211
879.044922	8807.285156
877.263672	8767.319336
875.482422	8780.713867
873.701172	8577.96875
871.919922	8511.421875
870.138672	8696.007813
868.355469	8705.196289
866.572266	8669.510742
864.789063	8584.777344
863.005859	8595.384766
861.220703	8584.967773
859.435547	8543.737305
857.650391	8533.335938
855.865234	8496.335938
854.080078	8519.545898
852.292969	8559.538086
850.505859	8414.816406
848.71875	8628.273438
846.931641	8518.56543
845.144531	8537.543945
843.355469	8419.518555
841.566406	8544.725586
839.777344	8521.764648
837.988281	8440.143555
836.197266	8519.167969
834.408203	8571.625
832.617188	8270.885742
830.824219	8446.1875
829.033203	8268.402344
827.240234	8511.973633
825.449219	8461.164063
823.65625	8531.682617
821.861328	8418.162109
820.068359	8516.52832
818.273438	8430.929688
816.478516	8537.602539
814.683594	8510.529297
812.888672	8448.660156
811.091797	8468.947266
809.296875	8614.474609
807.5	8673.668945
805.701172	8645.201172
803.904297	8488.800781
802.105469	8321.350586
800.308594	8447.277344
798.509766	8434.172852
796.708984	8434.966797
794.910156	8487.155273
793.109375	8614.30957
791.308594	8716.412109
789.507813	8717.136719
787.707031	8692.879883
785.904297	8522.954102
784.101563	8577.817383
782.298828	8459.307617
780.496094	8343.625977
778.693359	8374.925781
776.888672	8402.053711
775.083984	8276.766602
773.279297	8431.334961
771.474609	8326.871094
769.667969	8254.297852
767.861328	8291.107422
766.054688	8197.818359
764.248047	8188.966309
762.441406	8209.164063
760.632813	8114.575195
758.824219	8028.325195
757.015625	8148.062988
755.207031	8361.710938
753.398438	8623.611328
751.587891	8629.861328
749.777344	8723.103516
747.966797	9035.811523
746.154297	9287.640625
744.34375	9660.782227
742.53125	9974.423828
740.71875	10289.294922
738.90625	11101.813477
737.091797	12346.829102
735.277344	13960.634766
733.464844	15427.612305
731.648438	16450.296875
729.833984	16113.09668
728.019531	15062.77832
726.203125	13401.72168
724.386719	11964.415039
722.568359	10820.875977
720.751953	9977.775391
718.933594	9447.27832
717.115234	9134.28418
715.296875	8791.195313
713.478516	8471.631836
711.658203	8418.78418
709.839844	8381.072266
708.019531	8278.827148
706.197266	8324.921875
704.376953	8483.558594
702.554688	8264.704102
700.734375	8334.092773
698.910156	8221.00293
697.087891	8298.595703
695.265625	8551.654297
693.441406	8801.850586
691.617188	8572.263672
689.792969	8722.314453
687.966797	8618.876953
686.140625	8668.871094
684.316406	8546.326172
682.490234	8467.641602
680.662109	8550.477539
678.835938	8700.31543
677.007813	8856.920898
675.179688	8787.806641
673.351563	8896.462891
671.521484	8961.325195
669.693359	8886.767578
667.863281	8921.542969
666.033203	8842.930664
664.201172	8783.472656
662.371094	8602.53418
660.539063	8599.123047
658.707031	8461.980469
656.875	8393.117188
655.041016	8418.399414
653.208984	8642.760742
651.375	8468.925781
649.541016	8500.984375
647.705078	8452.629883
645.871094	8521.459961
644.035156	8616.133789
642.199219	8679.444336
640.363281	8590.249023
638.525391	8537.844727
636.689453	8515.399414
634.851563	8509.290039
633.013672	8450.139648
631.173828	8487.558594
629.335938	8490.973633
627.496094	8581.369141
625.65625	8497.796875
623.816406	8467.244141
621.974609	8644.498047
620.132813	8593.556641
618.292969	8326.797852
616.449219	8201.310547
614.607422	8104.376465
612.763672	8106.512695
610.921875	8108.647461
609.078125	8005.023438
607.232422	8038.357422
605.388672	7938.86377
603.542969	7781.156738
601.697266	7683.125
599.851563	7701.60498
598.005859	7507.509277
596.158203	7706.050293
594.310547	7597.30127
592.462891	7527.839844
590.615234	7559.85791
588.765625	7508.017578
586.916016	7494.056641
585.066406	7582.828125
583.216797	7474.260742
581.367188	7454.912109
579.515625	7497.704102
577.664063	7472.956543
575.8125	7554.874023
573.960938	7508.527832
572.107422	7672.709961
570.253906	7716.745117
568.400391	7621.836426
566.546875	7679.345703
564.693359	7692.339355
562.837891	7679.717773
560.982422	7772.20459
559.126953	7809.413574
557.269531	7839.870117
555.414063	7874.351074
553.556641	8071.702637
551.699219	7925.765625
549.841797	7723.384766
547.982422	7744.405762
546.123047	7421.124023
544.263672	7442.206055
542.404297	7370.524902
540.544922	7301.564941
538.683594	7478.517578
536.822266	7487.474609
534.960938	7376.902832
533.099609	7508.059082
531.236328	7488.812012
529.373047	7422.603516
527.509766	7548.286621
525.646484	7533.066406
523.783203	7849.088867
521.917969	8396.90332
520.052734	9166.960938
518.1875	8478.648438
516.320313	7671.42627
514.455078	7227.577148
512.587891	7018.28418
510.720703	6964.390625
508.853516	7000.200195
506.984375	7022.610352
505.115234	7031.631348
503.246094	7056.697266
501.376953	6978.787598
499.507813	6831.397461
497.636719	6908.617676
495.765625	6882.910645
493.894531	6879.925781
492.021484	6689.959961
490.150391	6817.878418
488.277344	6724.133789
486.404297	6723.857422
484.53125	6708.90332
482.65625	6744.647461
480.78125	6635.004395
478.90625	6621.414551
477.03125	6657.152832
475.15625	6684.877441
473.279297	6548.704102
471.402344	6652.368652
469.525391	6545.565918
467.648438	6678.472168
465.769531	6593.011719
463.890625	6681.925781
462.011719	6583.199707
460.132813	6505.802734
458.251953	6512.222656
456.371094	6526.616211
454.490234	6418.71582
452.609375	6563.35498
450.728516	6450.182129
448.845703	6399.491211
446.962891	6425.844238
445.080078	6422.976563
443.197266	6482.492188
441.3125	6581.788574
439.427734	6639.910645
437.542969	6694.025391
435.658203	6602.251465
433.771484	6555.595215
431.886719	6420.160156
430	6431.87207
428.111328	6406.484863
426.224609	6419.518066
424.335938	6386.201172
422.447266	6338.337402
420.558594	6252.115723
418.669922	6343.238281
416.779297	6366.852051
414.888672	6219.848145
412.998047	6329.42334
411.107422	6230.086426
409.214844	6387.182617
407.324219	6357.905273
405.431641	6296.938965
403.537109	6341.651855
401.644531	6264.874512
399.75	6272.613281
