#Wave		#Intensity
2109.224609	2208.046631
2107.712891	2272.551270
2106.201172	2300.171143
2104.687500	2289.754395
2103.175781	2251.242920
2101.662109	2222.663330
2100.150391	2296.531250
2098.636719	2160.585693
2097.123047	2275.721680
2095.607422	2313.206055
2094.093750	2231.819824
2092.578125	2261.045410
2091.064453	2262.207764
2089.548828	2235.324951
2088.033203	2266.180176
2086.517578	2301.969238
2085.000000	2177.826660
2083.484375	2236.695068
2081.966797	2244.452881
2080.449219	2196.190430
2078.931641	2253.369629
2077.414063	2269.353027
2075.894531	2296.854980
2074.376953	2283.191895
2072.857422	2279.409180
2071.337891	2209.811035
2069.818359	2253.752930
2068.298828	2202.282227
2066.777344	2187.009766
2065.257813	2275.316650
2063.736328	2197.575684
2062.214844	2315.422119
2060.693359	2229.491211
2059.171875	2219.157227
2057.648438	2236.745605
2056.126953	2206.711670
2054.603516	2278.466309
2053.080078	2246.794922
2051.556641	2234.827148
2050.033203	2196.616943
2048.507813	2201.066406
2046.984375	2231.750732
2045.458984	2241.109375
2043.933594	2227.516602
2042.408203	2228.678223
2040.882813	2269.160645
2039.355469	2306.349609
2037.830078	2237.073242
2036.302734	2213.672119
2034.775391	2245.937988
2033.248047	2183.265625
2031.718750	2269.521729
2030.191406	2236.317627
2028.662109	2258.737793
2027.134766	2274.607422
2025.605469	2251.232910
2024.076172	2227.868408
2022.544922	2235.563477
2021.015625	2218.747559
2019.484375	2213.373291
2017.955078	2188.403809
2016.423828	2225.490723
2014.892578	2244.604980
2013.359375	2218.012451
2011.828125	2268.123291
2010.294922	2226.854492
2008.761719	2221.486572
2007.230469	2230.796875
2005.695313	2210.757080
2004.162109	2285.266113
2002.628906	2279.889893
2001.093750	2186.533447
1999.558594	2241.452148
1998.023438	2249.117676
1996.488281	2325.167236
1994.953125	2261.183105
1993.417969	2296.508301
1991.880859	2167.468262
1990.343750	2347.590820
1988.806641	2288.535889
1987.269531	2266.908203
1985.732422	2225.779785
1984.193359	2230.182861
1982.656250	2353.219971
1981.117188	2221.110107
1979.578125	2230.384521
1978.039063	2207.172607
1976.500000	2250.545166
1974.958984	2261.430664
1973.417969	2262.573242
1971.878906	2223.146729
1970.337891	2266.478760
1968.796875	2278.973633
1967.253906	2223.351563
1965.712891	2187.209473
1964.169922	2188.365967
1962.626953	2238.142090
1961.083984	2270.073242
1959.541016	2246.911621
1957.998047	2180.029541
1956.455078	2279.962891
1954.910156	2226.053711
1953.365234	2188.353516
1951.820313	2186.270996
1950.275391	2166.392090
1948.730469	2280.780273
1947.183594	2178.410889
1945.638672	2210.286865
1944.091797	2159.705078
1942.544922	2220.662842
1940.998047	2189.490723
1939.449219	2237.492188
1937.902344	2191.792969
1936.353516	2265.610596
1934.804688	2236.069580
1933.255859	2259.808105
1931.707031	2189.935547
1930.158203	2207.219727
1928.607422	2211.591309
1927.058594	2233.701904
1925.507813	2234.841309
1923.957031	2169.884033
1922.406250	2177.483154
1920.853516	2218.918945
1919.302734	2250.670654
1917.750000	2176.100342
1916.197266	2269.042480
1914.644531	2229.920898
1913.091797	2227.839111
1911.539063	2228.977051
1909.984375	2175.407227
1908.431641	2174.947021
1906.876953	2211.478760
1905.322266	2185.282715
1903.767578	2233.050293
1902.210938	2226.148682
1900.656250	2193.537842
1899.099609	2181.827393
1897.542969	2205.460449
1895.986328	2269.232910
1894.429688	2201.316406
1892.873047	2192.824463
1891.314453	2184.336182
1889.755859	2225.593994
1888.199219	2199.455078
1886.640625	2179.742920
1885.080078	2168.057129
1883.521484	2206.076660
1881.960938	2218.433838
1880.402344	2198.733887
1878.841797	2183.849121
1877.281250	2245.861572
1875.720703	2181.324463
1874.158203	2172.857422
1872.597656	2266.850342
1871.035156	2163.936279
1869.472656	2232.288086
1867.910156	2135.824219
1866.347656	2181.759277
1864.783203	2238.869141
1863.220703	2212.814453
1861.656250	2197.960449
1860.091797	2263.021484
1858.527344	2251.358398
1856.962891	2201.360352
1855.396484	2250.407471
1853.832031	2259.512939
1852.265625	2222.316406
1850.699219	2231.423828
1849.132813	2214.994385
1847.566406	2256.009033
1845.998047	2126.325928
1844.431641	2188.074463
1842.863281	2217.907227
1841.294922	2212.656250
1839.726563	2215.376709
1838.156250	2183.039551
1836.587891	2254.269043
1835.017578	2198.045654
1833.449219	2184.841797
1831.878906	2228.959473
1830.306641	2230.080566
1828.736328	2159.586426
1827.166016	2216.410156
1825.593750	2244.575928
1824.021484	2218.655029
1822.449219	2180.024170
1820.876953	2255.872314
1819.304688	2187.050781
1817.730469	2200.890625
1816.158203	2294.162598
1814.583984	2196.784424
1813.009766	2237.610840
1811.435547	2154.575195
1809.859375	2222.379150
1808.285156	2209.213135
1806.708984	2119.889160
1805.132813	2154.342285
1803.556641	2226.846924
1801.980469	2193.076172
1800.404297	2259.199951
1798.826172	2212.755859
1797.248047	2231.305420
1795.671875	2243.509277
1794.093750	2176.504883
1792.513672	2226.724365
1790.935547	2223.087402
1789.355469	2203.621094
1787.777344	2230.062012
1786.197266	2223.261475
1784.617188	2221.209961
1783.035156	2301.408691
1781.455078	2201.294922
1779.873047	2257.748047
1778.292969	2235.140869
1776.710938	2286.821533
1775.128906	2265.797852
1773.544922	2255.840820
1771.962891	2228.514648
1770.378906	2235.939209
1768.794922	2227.573242
1767.212891	2234.994385
1765.626953	2188.758545
1764.042969	2234.050049
1762.458984	2304.560303
1760.873047	2294.611084
1759.287109	2314.623291
1757.701172	2279.453857
1756.115234	2297.884521
1754.529297	2270.611816
1752.941406	2292.187256
1751.355469	2247.601318
1749.767578	2270.746826
1748.179688	2238.779053
1746.591797	2228.861572
1745.001953	2236.258789
1743.414063	2240.506348
1741.824219	2273.066650
1740.234375	2343.358643
1738.644531	2259.526367
1737.054688	2303.066162
1735.462891	2305.722656
1733.873047	2413.661133
1732.281250	2334.597412
1730.689453	2348.240234
1729.097656	2360.306641
1727.505859	2413.189453
1725.912109	2387.563232
1724.320313	2377.641846
1722.726563	2417.934326
1721.132813	2378.204346
1719.539063	2434.163574
1717.945313	2359.948975
1716.349609	2481.733398
1714.755859	2366.787109
1713.160156	2504.188965
1711.564453	2477.024170
1709.968750	2518.792969
1708.371094	2438.389404
1706.775391	2525.555176
1705.177734	2517.193359
1703.580078	2496.313965
1701.982422	2550.551758
1700.384766	2479.612549
1698.787109	2554.163574
1697.187500	2464.488281
1695.587891	2553.081543
1693.990234	2547.851318
1692.390625	2478.549561
1690.789063	2571.770508
1689.189453	2529.048584
1687.587891	2551.939209
1685.988281	2499.870605
1684.386719	2529.001953
1682.785156	2542.512695
1681.181641	2598.149902
1679.580078	2617.880371
1677.976563	2586.129395
1676.373047	2635.483643
1674.769531	2603.741943
1673.166016	2639.041992
1671.562500	2605.754395
1669.957031	2653.503662
1668.353516	2716.810547
1666.748047	2711.561523
1665.142578	2710.986084
1663.537109	2677.717529
1661.929688	2753.416748
1660.324219	2743.495361
1658.716797	2800.478271
1657.109375	2810.771973
1655.501953	2850.609131
1653.894531	2829.791016
1652.285156	2829.189941
1650.677734	2910.959717
1649.068359	2918.110596
1647.458984	2964.095703
1645.849609	2974.338135
1644.240234	3063.771240
1642.628906	3033.622070
1641.019531	3105.929932
1639.408203	3195.277344
1637.796875	3127.882324
1636.185547	3251.312988
1634.572266	3317.308838
1632.960938	3353.816162
1631.347656	3377.906006
1629.734375	3417.484131
1628.121094	3509.729980
1626.507813	3608.133057
1624.894531	3565.545166
1623.279297	3713.447998
1621.664063	3824.129883
1620.048828	3849.630127
1618.433594	3958.687988
1616.818359	3990.336914
1615.203125	4119.427734
1613.585938	4103.083984
1611.968750	4205.809082
1610.351563	4442.984863
1608.734375	4309.117188
1607.117188	4407.095215
1605.498047	4457.138672
1603.878906	4539.597168
1602.261719	4652.905762
1600.640625	4611.770996
1599.021484	4664.813965
1597.402344	4742.526367
1595.781250	4849.521973
1594.162109	4718.906250
1592.541016	4864.417480
1590.919922	5034.538574
1589.296875	5119.795410
1587.675781	5200.392090
1586.052734	5282.495117
1584.429688	5449.298340
1582.806641	5480.480957
1581.183594	5426.950684
1579.560547	5524.329590
1577.935547	5375.372559
1576.312500	5220.322754
1574.687500	5143.811523
1573.062500	5188.862793
1571.435547	5146.226563
1569.810547	5197.407715
1568.183594	5251.641113
1566.558594	5290.480957
1564.931641	5163.338867
1563.304688	5278.999023
1561.675781	5267.116699
1560.048828	5289.025391
1558.419922	5307.853027
1556.791016	5171.630859
1555.162109	5185.871094
1553.533203	5190.897949
1551.904297	5171.376953
1550.273438	5050.636719
1548.642578	4722.935547
1547.011719	4683.596191
1545.380859	4477.202148
1543.750000	4411.879883
1542.119141	4334.328613
1540.486328	4204.729980
1538.853516	4156.353027
1537.220703	4230.486328
1535.587891	4123.954102
1533.955078	4035.832520
1532.320313	3955.399170
1530.685547	4021.861572
1529.052734	4034.763428
1527.416016	3890.156982
1525.781250	4133.932617
1524.146484	3857.916016
1522.509766	3947.249023
1520.873047	3967.790527
1519.236328	3937.915039
1517.599609	3998.155762
1515.962891	3988.135010
1514.324219	4098.713379
1512.687500	4093.253418
1511.048828	4234.278320
1509.410156	4215.061035
1507.771484	4328.544922
1506.130859	4301.689941
1504.492188	4328.206055
1502.851563	4241.917480
1501.210938	4276.053711
1499.570313	4133.440918
1497.927734	3928.436279
1496.287109	3743.317627
1494.644531	3605.478516
1493.001953	3616.879395
1491.359375	3482.169922
1489.716797	3531.632080
1488.074219	3387.870850
1486.429688	3520.983154
1484.785156	3552.156494
1483.140625	3546.829102
1481.496094	3708.699219
1479.851563	3792.998047
1478.207031	3933.474365
1476.560547	3877.941895
1474.914063	3810.283936
1473.267578	3779.094482
1471.621094	3661.392578
1469.972656	3634.801270
1468.326172	3708.364990
1466.677734	3645.365967
1465.029297	3691.594727
1463.380859	3725.672363
1461.732422	3709.706299
1460.082031	3614.930664
1458.431641	3611.117676
1456.783203	3551.249756
1455.132813	3479.289551
1453.480469	3496.708740
1451.830078	3442.959717
1450.177734	3507.304199
1448.527344	3427.847656
1446.875000	3451.313965
1445.220703	3509.562988
1443.568359	3412.007568
1441.916016	3443.021729
1440.261719	3440.763184
1438.607422	3335.728271
1436.953125	3371.270996
1435.298828	3326.727051
1433.642578	3341.109375
1431.988281	3181.821533
1430.332031	3117.719482
1428.675781	3145.722168
1427.019531	3083.164307
1425.361328	3067.406494
1423.705078	3033.553467
1422.046875	3032.894043
1420.388672	3100.086914
1418.730469	3076.800293
1417.072266	3021.873047
1415.412109	3012.174805
1413.753906	3070.273438
1412.093750	3129.852783
1410.433594	3087.007568
1408.773438	3111.929443
1407.111328	3103.725830
1405.451172	3164.749756
1403.789063	3227.251221
1402.126953	3115.235840
1400.464844	3194.263184
1398.802734	3178.531250
1397.138672	3177.838135
1395.474609	3138.069580
1393.812500	3125.364502
1392.146484	3172.754883
1390.482422	3224.629883
1388.818359	3145.843018
1387.152344	3203.705811
1385.486328	3108.447021
1383.820313	3074.754639
1382.154297	3203.107422
1380.488281	3133.409668
1378.820313	3090.735352
1377.154297	3132.040039
1375.486328	3116.365723
1373.818359	3165.139404
1372.148438	3228.874756
1370.480469	3271.610107
1368.810547	3248.429199
1367.140625	3312.103760
1365.470703	3396.708008
1363.800781	3310.653564
1362.130859	3202.191162
1360.458984	3276.291016
1358.787109	3423.646973
1357.115234	3291.304199
1355.443359	3350.384277
1353.771484	3367.586426
1352.097656	3384.780518
1350.423828	3382.543945
1348.751953	3383.295654
1347.076172	3309.376465
1345.402344	3356.428467
1343.728516	3364.647949
1342.052734	3413.158936
1340.376953	3327.360107
1338.701172	3332.596191
1337.025391	3400.469971
1335.347656	3395.249268
1333.671875	3343.816406
1331.994141	3299.857910
1330.316406	3246.978027
1328.638672	3264.141113
1326.960938	3200.865234
1325.281250	3215.052246
1323.601563	3203.922852
1321.921875	3136.235596
1320.242188	3142.985596
1318.562500	3158.659424
1316.880859	3163.913574
1315.201172	3160.241943
1313.519531	3229.427002
1311.837891	3236.147461
1310.154297	3199.765381
1308.472656	3176.771484
1306.789063	3228.064209
1305.105469	3233.292725
1303.421875	3296.428711
1301.738281	3309.062012
1300.054688	3318.720703
1298.369141	3344.697754
1296.683594	3300.935303
1294.998047	3331.353760
1293.312500	3385.485107
1291.626953	3363.980469
1289.939453	3280.230469
1288.253906	3258.757813
1286.566406	3348.414307
1284.878906	3366.929932
1283.189453	3296.580322
1281.501953	3261.796387
1279.812500	3298.081299
1278.123047	3263.311523
1276.433594	3163.453369
1274.744141	3152.396973
1273.052734	3117.681885
1271.363281	3028.271729
1269.671875	3037.948486
1267.980469	3043.186523
1266.289063	3054.332764
1264.595703	3068.428467
1262.904297	3052.977295
1261.210938	3036.055908
1259.517578	3025.047119
1257.824219	2919.577393
1256.128906	2848.095459
1254.435547	2933.033936
1252.740234	2873.380371
1251.044922	2791.632324
1249.349609	2833.768555
1247.652344	2852.301025
1245.957031	2879.667236
1244.259766	2868.712646
1242.562500	2810.624268
1240.865234	2784.961914
1239.167969	2766.672607
1237.468750	2766.056396
1235.769531	2653.586182
1234.072266	2705.966553
1232.371094	2698.007813
1230.671875	2670.932373
1228.972656	2629.164063
1227.271484	2675.621582
1225.570313	2664.735840
1223.869141	2718.511475
1222.167969	2642.978760
1220.464844	2655.607910
1218.763672	2691.726807
1217.060547	2713.147949
1215.357422	2760.979980
1213.654297	2748.622803
1211.949219	2759.745850
1210.246094	2732.725586
1208.541016	2827.437988
1206.835938	2913.310303
1205.130859	2918.521973
1203.423828	3162.612061
1201.718750	3290.841797
1200.011719	3377.997559
1198.304688	3460.719971
1196.597656	3615.151855
1194.888672	3460.633301
1193.181641	3370.580566
1191.472656	3346.413330
1189.763672	3209.612793
1188.054688	3179.641357
1186.343750	3143.834229
1184.634766	3072.956543
1182.923828	2994.802490
1181.212891	3014.587891
1179.501953	2993.458008
1177.791016	2943.125000
1176.078125	2856.307373
1174.365234	2810.406982
1172.652344	2787.880859
1170.939453	2771.201904
1169.226563	2723.891846
1167.511719	2695.565186
1165.798828	2724.125000
1164.083984	2669.566650
1162.369141	2712.695313
1160.652344	2643.590332
1158.937500	2695.447021
1157.220703	2699.209961
1155.503906	2640.348145
1153.787109	2572.776367
1152.070313	2601.310303
1150.351563	2583.259521
1148.632813	2683.073975
1146.916016	2606.824463
1145.195313	2537.880859
1143.476563	2556.210693
1141.757813	2587.615479
1140.037109	2483.840576
1138.316406	2455.671631
1136.595703	2475.455078
1134.875000	2431.323730
1133.152344	2426.418213
1131.429688	2369.251465
1129.708984	2454.349609
1127.984375	2382.691162
1126.261719	2412.618164
1124.539063	2429.477539
1122.814453	2347.721924
1121.089844	2293.548584
1119.365234	2288.680908
1117.640625	2273.671631
1115.914063	2236.936768
1114.187500	2207.460449
1112.462891	2251.852539
1110.734375	2209.355713
1109.007813	2187.142578
1107.281250	2201.118164
1105.552734	2186.150635
1103.824219	2194.333496
1102.095703	2245.897461
1100.367188	2255.508545
1098.636719	2276.679199
1096.908203	2319.517578
1095.177734	2443.248291
1093.447266	2451.360352
1091.714844	2458.024170
1089.984375	2597.520752
1088.251953	2547.849854
1086.519531	2495.314697
1084.787109	2325.929688
1083.054688	2286.451416
1081.320313	2249.875244
1079.585938	2193.129150
1077.851563	2204.162354
1076.117188	2163.305664
1074.382813	2161.371826
1072.648438	2228.587158
1070.912109	2171.909180
1069.175781	2115.256836
1067.439453	2130.610107
1065.701172	2167.545410
1063.964844	2192.951904
1062.226563	2219.785400
1060.488281	2291.193115
1058.750000	2227.399902
1057.011719	2255.644043
1055.271484	2187.575684
1053.531250	2159.773438
1051.791016	2144.913574
1050.050781	2140.114502
1048.310547	2040.541992
1046.568359	2055.867676
1044.826172	2078.363037
1043.083984	2031.967407
1041.341797	2038.675903
1039.599609	2036.775024
1037.855469	2039.176880
1036.113281	2038.710083
1034.369141	2029.643066
1032.623047	2085.066650
1030.878906	2057.367432
1029.132813	2064.057861
1027.386719	2138.051514
1025.640625	2021.591797
1023.894531	2112.737549
1022.148438	2040.699585
1020.400391	2033.077759
1018.652344	2025.459229
1016.904297	1980.661865
1015.156250	2005.942749
1013.406250	2016.917603
1011.658203	1965.006958
1009.908203	1994.559692
1008.158203	1985.530762
1006.408203	1980.790161
1004.656250	2000.323730
1002.904297	2005.573608
1001.152344	2029.373657
999.400391	2051.735596
997.648438	1981.366577
995.896484	2025.120972
994.142578	2018.951538
992.388672	1967.169312
990.634766	2012.321411
988.878906	1997.609619
987.125000	2017.092407
985.369141	2022.324341
983.613281	2152.851807
981.857422	2031.356689
980.099609	2032.311523
978.343750	2053.185791
976.585938	2007.191162
974.828125	2025.216675
973.070313	2023.327393
971.310547	2037.075806
969.552734	2016.708496
967.792969	2036.135254
966.033203	2020.038696
964.273438	2072.120605
962.511719	2077.321533
960.750000	2025.736694
958.990234	1982.690918
957.226563	2073.043457
955.464844	2072.563965
953.703125	2036.627930
951.939453	2006.380005
950.175781	1943.540894
948.412109	1994.113159
946.648438	1997.902344
944.882813	1960.607544
943.117188	1984.230469
941.351563	2077.224609
939.585938	2062.586914
937.820313	2070.600830
936.052734	2063.045898
934.285156	2058.323486
932.517578	2103.104736
930.750000	2139.380859
928.982422	2073.855713
927.212891	2087.507813
925.443359	2060.176025
923.673828	2024.380615
921.904297	2067.693604
920.132813	1975.431519
918.361328	1979.207764
916.591797	2009.798096
914.818359	1966.999634
913.046875	1917.167358
911.275391	2014.038574
909.501953	1983.958984
907.728516	1936.976318
905.955078	1990.083130
904.179688	1995.256470
902.406250	2030.010986
900.630859	1984.468872
898.855469	2062.860352
897.080078	2008.884766
895.302734	2081.603760
893.525391	2082.525879
891.750000	2015.921875
889.970703	2064.677979
888.193359	1981.235229
886.416016	2014.512573
884.636719	2028.097534
882.857422	1965.798218
881.078125	1942.862549
879.296875	1933.982300
877.517578	1977.060059
875.736328	1927.464355
873.955078	1985.961670
872.173828	1871.840576
870.390625	1868.597656
868.609375	1861.148560
866.826172	1873.333496
865.042969	1870.092041
863.259766	1927.118164
861.474609	1919.661621
859.689453	1878.587036
857.904297	1876.747192
856.119141	1932.317505
854.333984	1940.264893
852.546875	1886.627075
850.761719	1890.383179
848.974609	1896.935303
847.185547	1963.623657
845.398438	1861.090576
843.609375	1923.561890
841.822266	1902.147095
840.031250	1929.647217
838.242188	1895.668091
836.453125	1839.358643
834.662109	1890.590576
832.871094	1919.462769
831.080078	1878.538940
829.289063	1906.004761
827.496094	1866.497803
825.703125	1790.748047
823.910156	1811.242920
822.117188	1808.029785
820.324219	1825.723145
818.529297	1751.446777
816.734375	1847.154297
814.939453	1800.761353
813.144531	1829.578125
811.347656	1792.955078
809.550781	1729.906372
807.755859	1800.460815
805.957031	1783.344727
804.160156	1737.031128
802.361328	1750.526733
800.564453	1807.108398
798.765625	1721.908203
796.964844	1752.070557
795.166016	1796.109497
793.365234	1720.692871
791.564453	1725.841553
789.763672	1676.850952
787.962891	1729.192383
786.160156	1767.634155
784.359375	1765.830688
782.556641	1697.460693
780.751953	1730.336426
778.949219	1696.660767
777.144531	1723.977539
775.339844	1729.113159
773.535156	1755.023926
771.730469	1780.922241
769.925781	1730.659180
768.119141	1778.697876
766.312500	1722.923340
764.505859	1734.968628
762.697266	1709.661133
760.890625	1699.577393
759.082031	1733.740234
757.273438	1749.917847
755.464844	1674.881104
753.654297	1717.314819
751.845703	1736.246704
750.035156	1708.217773
748.224609	1753.374268
746.412109	1707.410522
744.601563	1759.445190
742.789063	1712.121826
740.976563	1746.199585
739.164063	1726.480957
737.349609	1789.490601
735.537109	1811.120483
733.722656	1790.021973
731.908203	1841.950073
730.091797	1836.004761
728.277344	1772.227173
726.460938	1752.533813
724.644531	1717.709717
722.828125	1718.678955
721.009766	1683.878906
719.193359	1633.965942
717.375000	1702.332153
715.556641	1679.932983
713.736328	1636.928101
711.917969	1613.180542
710.097656	1681.486328
708.277344	1659.112793
706.457031	1676.569824
704.636719	1651.462158
702.814453	1644.208130
700.992188	1698.703613
699.169922	1628.338257
697.347656	1658.124634
695.523438	1672.813843
693.699219	1666.933594
691.875000	1655.573853
690.050781	1659.291382
688.226563	1656.157715
686.400391	1650.286377
684.574219	1648.525269
682.748047	1620.756104
680.921875	1650.479370
679.095703	1665.137817
677.267578	1633.280273
675.439453	1662.979004
673.611328	1741.884644
671.781250	1694.994995
669.953125	1735.590210
668.123047	1817.154541
666.292969	1829.015991
664.460938	1787.612183
662.630859	1862.278931
660.798828	1850.916016
658.966797	1816.359375
657.134766	1810.469849
655.302734	1934.163818
653.468750	1884.610962
651.634766	1919.609741
649.800781	1898.707397
647.966797	1909.157104
646.130859	1865.106201
644.294922	1823.800293
642.458984	1828.812866
640.623047	1748.054077
638.787109	1811.608887
636.949219	1781.240479
635.111328	1737.282104
633.273438	1747.749146
631.435547	1741.893433
629.595703	1727.883667
627.757813	1681.260986
625.917969	1698.524902
624.076172	1715.780518
622.236328	1685.491699
620.394531	1681.016235
618.552734	1615.454224
616.710938	1604.211426
614.869141	1632.323242
613.025391	1614.298706
611.183594	1601.707520
609.339844	1620.308105
607.494141	1606.365723
605.650391	1607.337646
603.804688	1554.111572
601.958984	1591.669922
600.113281	1611.604370
598.267578	1576.016479
596.419922	1597.298584
594.572266	1661.876587
592.724609	1614.124878
590.876953	1628.618896
589.027344	1605.240112
587.179688	1580.520142
585.330078	1620.693848
583.480469	1609.495728
581.628906	1653.696167
579.779297	1641.144409
577.927734	1620.496216
576.076172	1575.556030
574.222656	1588.677124
572.371094	1580.200806
570.517578	1554.189819
568.664063	1552.469604
566.810547	1519.734985
564.955078	1528.808838
563.101563	1481.269165
561.246094	1515.950317
559.390625	1530.406982
557.533203	1512.531738
555.677734	1493.318481
553.820313	1494.307617
551.962891	1437.422363
550.105469	1488.210571
548.246094	1516.104980
546.386719	1502.292969
544.527344	1520.758179
542.667969	1453.179810
540.808594	1514.654785
538.947266	1562.663696
537.085938	1558.259766
535.224609	1555.200928
533.363281	1536.031128
531.500000	1491.365601
529.638672	1495.034790
527.775391	1502.727295
525.910156	1531.878418
524.046875	1561.015381
522.181641	1561.982544
520.316406	1640.694336
518.451172	1687.205566
516.585938	1606.413940
514.718750	1593.973999
512.851563	1546.722046
510.984375	1524.930298
509.117188	1436.223389
507.250000	1497.436279
505.380859	1470.320190
503.511719	1496.719116
501.642578	1472.290527
499.771484	1506.697510
497.902344	1462.229126
496.031250	1476.577881
494.160156	1464.200684
492.287109	1526.624512
490.416016	1478.187622
488.542969	1477.833496
486.669922	1548.217041
484.796875	1511.818604
482.921875	1499.450195
481.046875	1509.760620
479.171875	1492.064819
477.296875	1474.377319
475.421875	1432.708740
473.544922	1417.708618
471.667969	1456.000244
469.791016	1421.024658
467.914063	1411.363892
466.035156	1458.947266
464.156250	1446.620117
462.277344	1435.629272
460.398438	1387.398071
458.519531	1436.271118
456.638672	1463.847778
454.757813	1455.521484
452.876953	1409.989136
450.994141	1408.322632
449.113281	1443.848877
447.230469	1390.384033
445.347656	1392.706177
443.462891	1402.990967
441.580078	1439.811157
439.695313	1404.971924
437.810547	1472.280518
435.925781	1461.319214
434.039063	1435.779785
432.152344	1430.134033
430.267578	1380.762207
428.378906	1398.978394
426.492188	1430.430420
424.603516	1416.845947
422.714844	1392.677368
420.826172	1455.872559
418.937500	1398.625854
417.046875	1418.133911
415.158203	1387.375000
413.265625	1363.241943
411.375000	1386.710083
409.484375	1355.980469
407.591797	1396.615845
405.699219	1359.293579
403.806641	1390.663940
401.912109	1385.049194
400.019531	1372.837036
