#Wave		#Intensity
1585.210938	17923.107422
1584.209961	17893.134766
1583.208984	17919.392578
1582.208008	18043.007813
1581.206055	17941.921875
1580.204102	17748.541016
1579.202148	17802.250000
1578.200195	17613.966797
1577.198242	17809.839844
1576.195313	17609.164063
1575.192383	17593.050781
1574.189453	17280.339844
1573.186523	17732.789063
1572.182617	17544.750000
1571.178711	17179.931641
1570.174805	17363.154297
1569.170898	17242.533203
1568.166992	17423.175781
1567.162109	17235.392578
1566.158203	17368.681641
1565.153320	17287.962891
1564.147461	17433.621094
1563.142578	17360.380859
1562.136719	17428.888672
1561.130859	17462.566406
1560.125000	17657.771484
1559.119141	17619.328125
1558.113281	18025.578125
1557.106445	18175.835938
1556.099609	18276.367188
1555.092773	18406.648438
1554.084961	18683.322266
1553.078125	18796.091797
1552.070313	19087.457031
1551.062500	19425.832031
1550.054688	19419.330078
1549.045898	20144.312500
1548.038086	20363.259766
1547.029297	21018.345703
1546.020508	21298.972656
1545.011719	21599.300781
1544.001953	22119.960938
1542.992188	22402.660156
1541.982422	23229.960938
1540.972656	23472.703125
1539.962891	23393.593750
1538.952148	23725.277344
1537.942383	23898.492188
1536.931641	23930.644531
1535.919922	23811.935547
1534.909180	23396.582031
1533.897461	23154.433594
1532.886719	22749.273438
1531.874023	22658.082031
1530.862305	21986.386719
1529.850586	21534.789063
1528.837891	21293.271484
1527.825195	20612.398438
1526.812500	20062.628906
1525.799805	20031.328125
1524.786133	19671.888672
1523.772461	19354.531250
1522.758789	18936.185547
1521.745117	18712.810547
1520.731445	18689.212891
1519.716797	18226.898438
1518.702148	18353.728516
1517.687500	18224.277344
1516.672852	17922.453125
1515.657227	17928.591797
1514.642578	18368.076172
1513.626953	18157.490234
1512.610352	18126.656250
1511.594727	18356.667969
1510.579102	18261.839844
1509.562500	18250.677734
1508.545898	18500.189453
1507.529297	18528.320313
1506.511719	18128.722656
1505.494141	18537.849609
1504.477539	18295.669922
1503.458984	18245.203125
1502.441406	18359.316406
1501.423828	18333.412109
1500.405273	18351.710938
1499.386719	18328.271484
1498.368164	18358.832031
1497.348633	18242.164063
1496.330078	18503.312500
1495.310547	18259.130859
1494.291016	18400.017578
1493.271484	18332.464844
1492.250977	18279.646484
1491.231445	18275.857422
1490.210938	18343.119141
1489.190430	18346.666016
1488.168945	18193.476563
1487.148438	18250.917969
1486.126953	18193.279297
1485.105469	18583.548828
1484.083984	18565.015625
1483.061523	18490.220703
1482.040039	18466.818359
1481.017578	18917.839844
1479.995117	18725.660156
1478.971680	19171.548828
1477.949219	19529.273438
1476.925781	19466.582031
1475.902344	19633.546875
1474.878906	19973.853516
1473.855469	20350.644531
1472.831055	20612.533203
1471.806641	20976.830078
1470.782227	21465.431641
1469.757813	21568.332031
1468.733398	22268.832031
1467.708008	22764.173828
1466.682617	23522.652344
1465.657227	23802.998047
1464.631836	24770.552734
1463.605469	25440.412109
1462.579102	26178.208984
1461.552734	26720.833984
1460.526367	27355.773438
1459.500000	28311.841797
1458.472656	28598.080078
1457.445313	29200.591797
1456.417969	29140.998047
1455.390625	29268.751953
1454.362305	29211.597656
1453.334961	29224.986328
1452.306641	28846.935547
1451.277344	28136.025391
1450.249023	27471.583984
1449.219727	27106.275391
1448.191406	25927.322266
1447.162109	25375.470703
1446.131836	24464.468750
1445.102539	24095.226563
1444.072266	23403.316406
1443.041992	22985.910156
1442.011719	22588.087891
1440.981445	21724.691406
1439.950195	21756.554688
1438.918945	21361.656250
1437.887695	20937.830078
1436.856445	20955.291016
1435.825195	20664.998047
1434.792969	20641.320313
1433.760742	20293.080078
1432.728516	20160.511719
1431.696289	19921.464844
1430.663086	19515.490234
1429.629883	19525.953125
1428.596680	19187.978516
1427.563477	19133.183594
1426.530273	19131.623047
1425.496094	18709.300781
1424.461914	18565.185547
1423.427734	18563.740234
1422.393555	18533.294922
1421.358398	18089.699219
1420.323242	17841.953125
1419.288086	18036.281250
1418.252930	17781.406250
1417.217773	18130.167969
1416.181641	17732.970703
1415.145508	17794.433594
1414.109375	18082.656250
1413.073242	18185.025391
1412.036133	18060.656250
1411.000000	18061.718750
1409.962891	18214.646484
1408.924805	18492.835938
1407.887695	18843.197266
1406.849609	19138.001953
1405.812500	19483.261719
1404.773438	19866.908203
1403.735352	20358.734375
1402.697266	20722.779297
1401.658203	20778.625000
1400.619141	21226.640625
1399.580078	21371.363281
1398.540039	21893.623047
1397.500977	21826.539063
1396.460938	21713.802734
1395.420898	21803.013672
1394.380859	21329.863281
1393.339844	21195.673828
1392.298828	21092.765625
1391.257813	21328.523438
1390.216797	20620.554688
1389.175781	20781.892578
1388.133789	20662.349609
1387.091797	20763.619141
1386.049805	21090.359375
1385.007813	20968.425781
1383.964844	21398.099609
1382.922852	21719.703125
1381.879883	21832.625000
1380.835938	22106.068359
1379.792969	22321.890625
1378.749023	22348.369141
1377.706055	22884.988281
1376.661133	23088.535156
1375.617188	22956.824219
1374.573242	23193.777344
1373.528320	23291.832031
1372.483398	23542.970703
1371.438477	23566.751953
1370.392578	23535.517578
1369.347656	23468.429688
1368.301758	23449.177734
1367.255859	23506.414063
1366.208984	23599.470703
1365.163086	23680.541016
1364.116211	23603.927734
1363.069336	23663.466797
1362.022461	23825.646484
1360.974609	23598.662109
1359.927734	23591.335938
1358.879883	23939.537109
1357.832031	23760.376953
1356.783203	24041.611328
1355.735352	23876.808594
1354.686523	24231.804688
1353.637695	24500.841797
1352.588867	24962.792969
1351.539063	25217.263672
1350.490234	25797.972656
1349.440430	26483.226563
1348.390625	27158.666016
1347.339844	27607.666016
1346.290039	28406.347656
1345.239258	28931.039063
1344.188477	29612.529297
1343.137695	30436.447266
1342.085938	30846.230469
1341.034180	31745.623047
1339.982422	32012.328125
1338.930664	32371.607422
1337.878906	33251.097656
1336.826172	33491.179688
1335.773438	33838.042969
1334.720703	33883.179688
1333.667969	33617.289063
1332.614258	33840.468750
1331.561523	33596.050781
1330.507813	33282.929688
1329.453125	33207.144531
1328.399414	32308.443359
1327.344727	32394.128906
1326.290039	31735.402344
1325.235352	31008.216797
1324.180664	31072.787109
1323.125000	30680.087891
1322.070313	30488.884766
1321.014648	30555.886719
1319.958008	30435.814453
1318.902344	30277.916016
1317.845703	29942.583984
1316.789063	29413.371094
1315.732422	29177.714844
1314.675781	28596.845703
1313.618164	28068.242188
1312.560547	27107.220703
1311.502930	26739.876953
1310.445313	26086.744141
1309.386719	25020.421875
1308.329102	24389.183594
1307.270508	23947.140625
1306.210938	23288.054688
1305.152344	22733.115234
1304.092773	22093.441406
1303.033203	21935.408203
1301.973633	21553.316406
1300.914063	20977.976563
1299.853516	20938.179688
1298.792969	20773.443359
1297.732422	20693.630859
1296.671875	20215.574219
1295.611328	20357.392578
1294.549805	20174.064453
1293.488281	20042.626953
1292.426758	20085.490234
1291.364258	20208.376953
1290.302734	19964.033203
1289.240234	19983.349609
1288.177734	19807.380859
1287.114258	19704.404297
1286.051758	19911.896484
1284.988281	19971.171875
1283.924805	19941.093750
1282.861328	20101.394531
1281.796875	20134.740234
1280.732422	19886.164063
1279.667969	19982.955078
1278.603516	19880.103516
1277.539063	20061.369141
1276.473633	20195.611328
1275.408203	20320.410156
1274.342773	20463.923828
1273.277344	20464.283203
1272.210938	20551.417969
1271.145508	20516.583984
1270.079102	20749.009766
1269.011719	20636.802734
1267.945313	20316.091797
1266.877930	20372.701172
1265.810547	20237.216797
1264.743164	19972.992188
1263.674805	19884.472656
1262.607422	19543.185547
1261.539063	19063.964844
1260.470703	18912.515625
1259.401367	18796.220703
1258.333008	18696.343750
1257.263672	18414.119141
1256.194336	18290.984375
1255.125000	18116.480469
1254.054688	17596.199219
1252.985352	17622.835938
1251.915039	17268.722656
1250.843750	17295.416016
1249.773438	16899.490234
1248.702148	17164.349609
1247.630859	16759.283203
1246.559570	16893.390625
1245.488281	16780.156250
1244.416016	16445.396484
1243.343750	16682.082031
1242.271484	16457.056641
1241.199219	16444.234375
1240.125977	16293.923828
1239.053711	16500.146484
1237.980469	16412.779297
1236.906250	16439.562500
1235.833008	16352.242188
1234.758789	16244.007813
1233.684570	16375.538086
1232.610352	16088.170898
1231.536133	16417.419922
1230.460938	16279.021484
1229.385742	16222.069336
1228.310547	16399.957031
1227.235352	16336.027344
1226.159180	16323.250000
1225.083008	16361.592773
1224.006836	16388.302734
1222.930664	16719.240234
1221.853516	16529.917969
1220.777344	16635.501953
1219.700195	16689.976563
1218.622070	16691.056641
1217.544922	16812.773438
1216.466797	17036.492188
1215.388672	17232.287109
1214.310547	17210.060547
1213.232422	17496.132813
1212.153320	17392.744141
1211.074219	17544.267578
1209.995117	17707.306641
1208.916016	17383.916016
1207.835938	17868.771484
1206.755859	17698.271484
1205.675781	17807.898438
1204.595703	17799.462891
1203.514648	17719.310547
1202.434570	17634.564453
1201.353516	17688.605469
1200.271484	17462.863281
1199.190430	17708.773438
1198.108398	17085.621094
1197.026367	17343.056641
1195.944336	17069.066406
1194.862305	16876.025391
1193.779297	16888.574219
1192.696289	16640.246094
1191.613281	16380.484375
1190.530273	16231.595703
1189.446289	16278.872070
1188.362305	16023.962891
1187.278320	15787.610352
1186.194336	15721.973633
1185.109375	15663.278320
1184.024414	15464.025391
1182.939453	15592.042969
1181.854492	15365.244141
1180.768555	15269.820313
1179.683594	15342.529297
1178.597656	15148.157227
1177.510742	15381.974609
1176.424805	15077.218750
1175.337891	15133.796875
1174.250977	15017.836914
1173.164063	14959.416992
1172.077148	14937.808594
1170.989258	14918.505859
1169.901367	15069.277344
1168.813477	14845.457031
1167.724609	14734.295898
1166.636719	15208.842773
1165.547852	14936.912109
1164.458984	15135.721680
1163.369141	15010.816406
1162.280273	15347.206055
1161.190430	15236.072266
1160.100586	15255.728516
1159.010742	15667.521484
1157.919922	15499.067383
1156.829102	15605.756836
1155.738281	15799.486328
1154.647461	15605.904297
1153.555664	15753.732422
1152.464844	15970.203125
1151.373047	15998.816406
1150.280273	15729.805664
1149.188477	15689.791016
1148.095703	15645.215820
1147.002930	15472.541016
1145.910156	15652.187500
1144.817383	15456.713867
1143.723633	15371.068359
1142.629883	15255.742188
1141.536133	15391.852539
1140.441406	15155.471680
1139.347656	15145.343750
1138.252930	15315.644531
1137.158203	15205.014648
1136.062500	15110.412109
1134.967773	14890.317383
1133.872070	15010.319336
1132.776367	14883.876953
1131.679688	14670.812500
1130.583984	14961.811523
1129.487305	14917.534180
1128.390625	15206.072266
1127.292969	14901.959961
1126.196289	15024.046875
1125.098633	15157.469727
1124.000977	15058.533203
1122.903320	14848.066406
1121.804688	15061.113281
1120.706055	15014.605469
1119.607422	15065.961914
1118.508789	14976.245117
1117.409180	15077.624023
1116.310547	14862.871094
1115.210938	15102.912109
1114.110352	14774.593750
1113.010742	14657.760742
1111.910156	14806.804688
1110.809570	14846.749023
1109.708984	14684.552734
1108.607422	14760.832031
1107.506836	14664.553711
1106.405273	14861.088867
1105.303711	14540.189453
1104.201172	14437.211914
1103.098633	14563.354492
1101.996094	14299.415039
1100.893555	14314.441406
1099.791016	14445.057617
1098.687500	14410.189453
1097.583984	14542.991211
1096.480469	14394.858398
1095.376953	14484.574219
1094.272461	14288.969727
1093.167969	14670.677734
1092.063477	14389.114258
1090.958008	14573.781250
1089.853516	14586.440430
1088.748047	14856.924805
1087.642578	15018.751953
1086.536133	15157.901367
1085.430664	15233.703125
1084.324219	15325.289063
1083.217773	15452.980469
1082.110352	15754.535156
1081.003906	16060.474609
1079.896484	16041.165039
1078.789063	16294.988281
1077.680664	16496.794922
1076.573242	16533.804688
1075.464844	16451.242188
1074.356445	16643.857422
1073.247070	16750.705078
1072.138672	16219.542969
1071.029297	16468.421875
1069.919922	16442.289063
1068.809570	16105.279297
1067.700195	15975.627930
1066.589844	15760.462891
1065.479492	15797.539063
1064.368164	15940.386719
1063.257813	15221.290039
1062.146484	15206.709961
1061.035156	15088.663086
1059.922852	14766.021484
1058.811523	14726.813477
1057.699219	14755.057617
1056.586914	14522.591797
1055.473633	14404.818359
1054.361328	14248.906250
1053.248047	14248.028320
1052.134766	14170.805664
1051.021484	14163.208984
1049.907227	14119.702148
1048.792969	14197.386719
1047.678711	14221.193359
1046.564453	14119.382813
1045.449219	13979.493164
1044.333984	14027.989258
1043.218750	14199.744141
1042.103516	14268.336914
1040.987305	14130.773438
1039.871094	14111.989258
1038.754883	14234.300781
1037.638672	14237.889648
1036.521484	14102.686523
1035.404297	14173.441406
1034.287109	14125.574219
1033.169922	14290.245117
1032.051758	14392.219727
1030.933594	14471.788086
1029.815430	14356.824219
1028.697266	14463.183594
1027.578125	14350.504883
1026.458984	14394.260742
1025.339844	14547.443359
1024.220703	14651.427734
1023.100586	14460.660156
1021.980469	14595.866211
1020.860352	14487.762695
1019.740234	14781.310547
1018.619141	14586.215820
1017.498047	14676.666016
1016.376953	14508.433594
1015.255859	14503.004883
1014.133789	14435.172852
1013.011719	14427.531250
1011.889648	14676.077148
1010.767578	14314.256836
1009.644531	14696.318359
1008.521484	14561.725586
1007.398438	14594.121094
1006.274414	14544.166992
1005.151367	14916.935547
1004.027344	14620.037109
1002.902344	14485.603516
1001.778320	14729.184570
1000.653320	14699.253906
999.528320	14471.551758
998.403320	14408.362305
997.278320	14669.510742
996.152344	14610.744141
995.026367	14345.511719
993.900391	14650.893555
992.773438	14731.984375
991.646484	14963.920898
990.519531	14956.169922
989.392578	15079.274414
988.265625	15071.499023
987.137695	15473.848633
986.009766	15115.796875
984.881836	15475.853516
983.752930	15421.467773
982.624023	15577.522461
981.495117	15383.625977
980.366211	15302.725586
979.236328	15401.149414
978.106445	15302.574219
976.976563	15133.243164
975.846680	14844.539063
974.715820	14907.586914
973.585938	14972.817383
972.454102	14881.071289
971.323242	14519.744141
970.191406	14799.335938
969.060547	14597.235352
967.927734	14737.544922
966.795898	14659.195313
965.663086	14675.803711
964.530273	14941.800781
963.397461	14896.552734
962.264648	15036.633789
961.130859	15121.510742
959.997070	15217.375000
958.863281	15152.258789
957.729492	15470.686523
956.594727	15268.915039
955.459961	15199.419922
954.325195	15317.179688
953.189453	15053.913086
952.053711	14944.878906
950.917969	14950.352539
949.782227	14693.941406
948.646484	14756.671875
947.509766	14518.012695
946.373047	14332.241211
945.235352	14540.120117
944.098633	14426.964844
942.960938	14346.825195
941.823242	14409.540039
940.685547	14562.292969
939.546875	14587.593750
938.408203	14509.679688
937.269531	14614.007813
936.129883	14731.457031
934.991211	14956.373047
933.851563	14953.031250
932.711914	14947.495117
931.571289	15091.074219
930.431641	14951.774414
929.291016	15099.668945
928.149414	15214.625000
927.008789	15239.703125
925.867188	15135.536133
924.725586	15114.629883
923.583984	15063.080078
922.441406	15007.173828
921.299805	14714.942383
920.157227	14733.527344
919.013672	14483.045898
917.871094	14565.092773
916.727539	14345.370117
915.583984	14346.527344
914.439453	14008.933594
913.295898	14191.517578
912.151367	14020.128906
911.006836	14062.849609
909.861328	13878.463867
908.716797	13986.684570
907.571289	13896.245117
906.424805	13973.863281
905.279297	13929.277344
904.132813	13653.516602
902.986328	13907.759766
901.839844	14007.101563
900.692383	14006.135742
899.545898	14114.124023
898.398438	13786.338867
897.250000	14096.892578
896.102539	13926.045898
894.954102	13683.427734
893.805664	13795.715820
892.656250	13914.479492
891.507813	13824.323242
890.358398	13884.293945
889.208984	13865.948242
888.058594	13980.236328
886.908203	13757.542969
885.758789	13656.651367
884.607422	13681.823242
883.457031	13700.464844
882.305664	13927.587891
881.154297	13616.128906
880.002930	13743.309570
878.850586	13560.078125
877.698242	13730.608398
876.545898	13452.008789
875.393555	13678.874023
874.240234	13560.867188
873.086914	13343.191406
871.933594	13439.881836
870.780273	13469.353516
869.625977	13464.148438
868.471680	13554.245117
867.317383	13384.449219
866.162109	13240.708008
865.007813	13488.793945
863.852539	13609.094727
862.696289	13370.204102
861.541016	13458.029297
860.384766	13251.715820
859.228516	13596.803711
858.072266	13427.295898
856.915039	13454.515625
855.757813	13367.213867
854.600586	13465.713867
853.442383	13408.680664
852.285156	13466.102539
851.126953	13534.290039
849.968750	13425.482422
848.809570	13217.473633
847.650391	13415.093750
846.491211	13442.250977
845.332031	13512.517578
844.171875	13414.610352
843.012695	13385.710938
841.851563	13455.938477
840.691406	13444.274414
839.530273	13542.453125
838.369141	13485.554688
837.208008	13714.993164
836.046875	13421.333984
834.884766	13568.914063
833.722656	13688.459961
832.560547	13444.470703
831.397461	13411.317383
830.234375	13558.761719
829.071289	13658.853516
827.908203	13537.569336
826.744141	13714.958008
825.580078	13759.098633
824.416016	13586.333984
823.251953	13452.291016
822.086914	13515.775391
820.921875	13654.335938
819.756836	13520.365234
818.590820	13300.657227
817.425781	13625.734375
816.259766	13648.365234
815.092773	13643.121094
813.926758	13610.018555
812.759766	13641.205078
811.592773	13481.738281
810.424805	13585.749023
809.257813	13404.954102
808.089844	13292.738281
806.920898	13379.596680
805.752930	13669.673828
804.583984	13405.595703
803.415039	13637.790039
802.246094	13337.490234
801.076172	13507.601563
799.906250	13532.308594
798.736328	13430.942383
797.566406	13581.687500
796.395508	13247.565430
795.224609	13579.771484
794.053711	13644.988281
792.881836	13716.576172
791.710938	14242.614258
790.538086	14117.774414
789.366211	14227.591797
788.194336	14646.537109
787.021484	14670.911133
785.848633	14857.250000
784.674805	14900.740234
783.500977	14782.303711
782.327148	14672.439453
781.153320	14598.823242
779.979492	14410.281250
778.804688	14364.424805
777.629883	14188.787109
776.454102	14342.975586
775.279297	14186.562500
774.103516	14189.702148
772.927734	13995.126953
771.750977	14070.572266
770.575195	13990.858398
769.398438	14229.854492
768.220703	14239.346680
767.043945	14287.057617
765.866211	14591.632813
764.688477	14804.797852
763.510742	14994.520508
762.332031	15324.180664
761.153320	15545.512695
759.974609	16199.346680
758.794922	16418.253906
757.616211	17493.396484
756.436523	18218.382813
755.255859	19574.402344
754.076172	21361.908203
752.895508	23381.541016
751.714844	25569.625000
750.533203	28434.058594
749.352539	31616.734375
748.170898	34675.234375
746.988281	37446.769531
745.806641	39212.503906
744.624023	40341.019531
743.441406	40843.320313
742.258789	40550.773438
741.075195	40135.812500
739.891602	40342.078125
738.708008	40030.832031
737.523438	40346.808594
736.339844	40844.179688
735.155273	41307.550781
733.969727	41521.734375
732.785156	40788.664063
731.599609	39330.437500
730.414063	37094.835938
729.227539	34200.453125
728.041992	31244.167969
726.855469	28122.779297
725.667969	25181.878906
724.481445	22952.076172
723.293945	21032.818359
722.106445	19775.447266
720.918945	18701.753906
719.730469	18047.277344
718.541992	17250.050781
717.353516	16509.974609
716.164063	16030.972656
714.975586	15758.206055
713.786133	15327.933594
712.595703	15160.513672
711.406250	14730.573242
710.215820	14502.457031
709.025391	14410.931641
707.833984	14332.043945
706.642578	14255.289063
705.451172	14205.847656
704.259766	14420.758789
703.068359	14270.625000
701.875977	14412.028320
700.683594	14637.223633
699.490234	15138.977539
698.297852	15493.817383
697.104492	15787.738281
695.910156	16550.689453
694.716797	17108.076172
693.522461	17346.986328
692.328125	17554.390625
691.132813	17556.626953
689.938477	17734.595703
688.743164	17310.099609
687.547852	17220.376953
686.351563	16969.714844
685.155273	16522.693359
683.958984	16205.435547
682.762695	15936.374023
681.565430	15569.265625
680.368164	15363.120117
679.170898	15075.645508
677.973633	14997.028320
676.775391	15024.874023
675.577148	14990.115234
674.378906	14957.458008
673.179688	14739.218750
671.980469	14621.152344
670.781250	14649.045898
669.581055	14672.757813
668.381836	14408.946289
667.181641	14203.577148
665.980469	14341.907227
664.780273	14084.596680
663.579102	13973.109375
662.377930	14134.285156
661.175781	13937.533203
659.973633	14065.359375
658.771484	14124.500977
657.569336	14169.059570
656.367188	14313.370117
655.164063	14283.049805
653.960938	14560.235352
652.756836	14698.122070
651.552734	15087.223633
650.348633	15332.885742
649.144531	15352.176758
647.939453	15603.887695
646.735352	15770.415039
645.529297	15990.795898
644.324219	16024.430664
643.118164	16319.289063
641.912109	16056.410156
640.706055	16013.323242
639.499023	15997.191406
638.292969	15720.065430
637.084961	15445.136719
635.877930	15164.123047
634.669922	15328.286133
633.461914	15142.625000
632.253906	15095.673828
631.044922	14823.271484
629.836914	14687.486328
628.626953	14667.547852
627.417969	14476.047852
626.208008	14573.964844
624.998047	14237.940430
623.788086	14556.893555
622.577148	14479.178711
621.366211	14599.711914
620.155273	14365.137695
618.944336	14262.751953
617.732422	14042.804688
616.520508	14070.497070
615.308594	14028.055664
614.095703	13740.271484
612.882813	13976.211914
611.669922	13828.711914
610.457031	13615.346680
609.243164	13470.056641
608.029297	13405.153320
606.815430	13465.878906
605.600586	13388.653320
604.385742	13309.405273
603.170898	13384.509766
601.955078	13375.238281
600.740234	13378.310547
599.524414	13471.850586
598.307617	13349.500977
597.091797	13473.830078
595.875000	13439.887695
594.658203	13334.061523
593.440430	13540.456055
592.222656	13272.444336
591.004883	13554.708984
589.787109	13233.456055
588.568359	13174.989258
587.349609	13305.275391
586.130859	12910.467773
584.912109	13094.064453
583.692383	13027.480469
582.472656	13106.440430
581.251953	13298.057617
580.032227	13104.460938
578.811523	13078.893555
577.589844	13319.523438
576.369141	13527.287109
575.147461	13757.466797
573.925781	13576.260742
572.703125	14008.842773
571.481445	14220.341797
570.258789	14511.485352
569.035156	14800.449219
567.812500	15030.007813
566.588867	15359.581055
565.365234	15721.686523
564.140625	15754.802734
562.916992	16100.311523
561.692383	16180.274414
560.466797	16043.859375
559.242188	15785.078125
558.016602	15567.215820
556.791016	15331.098633
555.564453	15172.573242
554.337891	14836.764648
553.111328	14513.339844
551.884766	14012.790039
550.657227	13585.809570
549.429688	13482.858398
548.202148	13524.526367
546.974609	13264.884766
545.746094	13290.299805
544.517578	13211.927734
543.288086	13166.140625
542.058594	13291.216797
540.829102	12968.891602
539.599609	13217.961914
538.370117	13255.542969
537.139648	13018.790039
535.909180	13058.428711
534.677734	13144.762695
533.446289	12896.014648
532.214844	13087.908203
530.983398	12957.004883
529.750977	12736.878906
528.519531	12713.635742
527.286133	12745.163086
526.053711	12701.650391
524.820313	12660.183594
523.586914	12823.439453
522.353516	12806.278320
521.119141	12813.434570
519.884766	12798.306641
518.650391	12580.696289
517.415039	12573.725586
516.179688	12495.919922
514.944336	12355.420898
513.708984	12425.380859
