#Wave		#Intensity
1585.210938	7885.067871
1584.209961	8107.358398
1583.208984	8058.233398
1582.208008	7821.882324
1581.206055	7980.011719
1580.204102	8053.226074
1579.202148	7936.784668
1578.200195	7972.559082
1577.198242	7821.265625
1576.195313	7949.308105
1575.192383	8027.437500
1574.189453	7968.447754
1573.186523	7969.289063
1572.182617	8009.993164
1571.178711	7841.441895
1570.174805	7792.500000
1569.170898	8022.446777
1568.166992	7888.848145
1567.162109	7847.392090
1566.158203	7932.859375
1565.153320	7834.190918
1564.147461	7949.472656
1563.142578	8005.022949
1562.136719	7978.502441
1561.130859	8021.594238
1560.125000	8246.091797
1559.119141	8281.655273
1558.113281	8289.877930
1557.106445	8526.597656
1556.099609	8706.106445
1555.092773	8796.163086
1554.084961	8700.019531
1553.078125	8904.195313
1552.070313	8872.578125
1551.062500	8868.260742
1550.054688	8804.421875
1549.045898	9053.039063
1548.038086	8714.007813
1547.029297	8739.467773
1546.020508	8606.321289
1545.011719	8584.718750
1544.001953	8362.485352
1542.992188	8452.384766
1541.982422	8230.269531
1540.972656	8144.398926
1539.962891	8130.337891
1538.952148	8024.726563
1537.942383	7931.528320
1536.931641	8013.983398
1535.919922	7901.041992
1534.909180	7874.682129
1533.897461	7885.411133
1532.886719	7826.936035
1531.874023	7691.887695
1530.862305	7640.887207
1529.850586	7597.317383
1528.837891	7758.722168
1527.825195	7700.332031
1526.812500	7748.104492
1525.799805	7556.477539
1524.786133	7927.477539
1523.772461	7758.093262
1522.758789	7712.093750
1521.745117	7769.675293
1520.731445	7745.878906
1519.716797	7601.319336
1518.702148	7619.458984
1517.687500	7723.821777
1516.672852	7874.942871
1515.657227	7811.743652
1514.642578	7842.134766
1513.626953	7680.500488
1512.610352	7752.745117
1511.594727	7743.757813
1510.579102	7761.834961
1509.562500	7831.557617
1508.545898	7891.414551
1507.529297	7725.050781
1506.511719	7738.199707
1505.494141	7761.172852
1504.477539	7816.078613
1503.458984	7809.546387
1502.441406	7852.138672
1501.423828	7914.356934
1500.405273	8123.854004
1499.386719	7803.077148
1498.368164	7965.882324
1497.348633	8101.630859
1496.330078	8014.095703
1495.310547	8189.018066
1494.291016	8027.939453
1493.271484	8114.530273
1492.250977	8193.732422
1491.231445	8125.870605
1490.210938	8011.486816
1489.190430	8095.558594
1488.168945	8086.533691
1487.148438	7967.331055
1486.126953	8092.973633
1485.105469	8184.299805
1484.083984	8148.345703
1483.061523	8168.674805
1482.040039	8137.629883
1481.017578	8485.639648
1479.995117	8236.943359
1478.971680	8479.676758
1477.949219	8614.777344
1476.925781	8671.632813
1475.902344	8699.149414
1474.878906	8882.966797
1473.855469	8922.636719
1472.831055	8935.434570
1471.806641	9316.797852
1470.782227	9456.406250
1469.757813	9637.433594
1468.733398	9898.884766
1467.708008	10030.967773
1466.682617	10350.747070
1465.657227	10709.398438
1464.631836	11233.639648
1463.605469	11570.026367
1462.579102	12013.471680
1461.552734	12485.960938
1460.526367	12792.653320
1459.500000	12906.869141
1458.472656	12865.241211
1457.445313	12867.438477
1456.417969	12584.940430
1455.390625	12395.003906
1454.362305	11925.433594
1453.334961	11667.622070
1452.306641	11395.330078
1451.277344	11208.225586
1450.249023	10809.766602
1449.219727	10343.440430
1448.191406	10297.565430
1447.162109	10086.554688
1446.131836	9817.354492
1445.102539	9672.079102
1444.072266	9772.012695
1443.041992	9556.431641
1442.011719	9413.724609
1440.981445	9186.177734
1439.950195	9046.032227
1438.918945	9167.811523
1437.887695	9049.544922
1436.856445	9093.713867
1435.825195	8837.388672
1434.792969	8719.262695
1433.760742	8564.851563
1432.728516	8616.348633
1431.696289	8646.032227
1430.663086	8617.606445
1429.629883	8400.418945
1428.596680	8284.947266
1427.563477	8065.499512
1426.530273	8153.312500
1425.496094	8033.126465
1424.461914	7951.672852
1423.427734	7855.749512
1422.393555	8088.529785
1421.358398	8219.734375
1420.323242	7739.726563
1419.288086	7919.251465
1418.252930	7939.334961
1417.217773	7983.550781
1416.181641	8056.711426
1415.145508	8250.498047
1414.109375	7968.915039
1413.073242	8268.771484
1412.036133	8392.454102
1411.000000	8496.794922
1409.962891	8429.938477
1408.924805	8746.318359
1407.887695	8802.327148
1406.849609	9063.086914
1405.812500	9533.286133
1404.773438	9714.316406
1403.735352	9979.536133
1402.697266	10367.407227
1401.658203	10586.654297
1400.619141	10832.275391
1399.580078	10813.177734
1398.540039	11135.612305
1397.500977	11020.274414
1396.460938	11039.612305
1395.420898	10871.461914
1394.380859	10919.659180
1393.339844	10590.628906
1392.298828	10763.772461
1391.257813	10494.950195
1390.216797	10454.342773
1389.175781	10502.573242
1388.133789	10303.574219
1387.091797	10570.177734
1386.049805	10968.618164
1385.007813	11160.613281
1383.964844	11731.424805
1382.922852	12297.203125
1381.879883	12560.710938
1380.835938	13051.783203
1379.792969	13662.454102
1378.749023	13925.508789
1377.706055	14066.304688
1376.661133	14537.492188
1375.617188	14783.438477
1374.573242	14615.192383
1373.528320	14841.873047
1372.483398	14661.719727
1371.438477	14266.353516
1370.392578	14086.393555
1369.347656	13913.681641
1368.301758	13179.254883
1367.255859	13114.356445
1366.208984	12746.007813
1365.163086	12153.239258
1364.116211	11933.335938
1363.069336	11811.435547
1362.022461	11677.646484
1360.974609	11586.880859
1359.927734	11479.445313
1358.879883	11381.599609
1357.832031	11321.962891
1356.783203	11276.660156
1355.735352	11250.453125
1354.686523	11512.729492
1353.637695	11643.798828
1352.588867	12008.354492
1351.539063	12375.138672
1350.490234	12939.482422
1349.440430	13134.441406
1348.390625	13688.863281
1347.339844	14214.484375
1346.290039	14849.367188
1345.239258	15345.967773
1344.188477	15737.678711
1343.137695	16419.412109
1342.085938	16789.328125
1341.034180	17401.603516
1339.982422	17614.267578
1338.930664	18052.619141
1337.878906	18136.746094
1336.826172	18244.593750
1335.773438	18333.392578
1334.720703	18500.515625
1333.667969	18449.148438
1332.614258	18333.714844
1331.561523	17924.064453
1330.507813	17820.650391
1329.453125	17359.089844
1328.399414	16779.140625
1327.344727	16462.628906
1326.290039	15785.915039
1325.235352	15396.268555
1324.180664	15146.591797
1323.125000	14745.395508
1322.070313	14415.425781
1321.014648	13834.572266
1319.958008	13694.340820
1318.902344	13528.127930
1317.845703	13101.656250
1316.789063	12914.340820
1315.732422	12746.029297
1314.675781	12452.435547
1313.618164	12085.660156
1312.560547	11865.615234
1311.502930	11744.934570
1310.445313	11655.025391
1309.386719	11161.140625
1308.329102	11083.201172
1307.270508	10757.320313
1306.210938	10514.215820
1305.152344	10365.639648
1304.092773	10342.213867
1303.033203	10200.813477
1301.973633	9891.972656
1300.914063	9826.203125
1299.853516	9630.760742
1298.792969	9588.649414
1297.732422	9515.912109
1296.671875	9450.274414
1295.611328	9217.375000
1294.549805	9104.712891
1293.488281	8994.452148
1292.426758	9112.643555
1291.364258	9134.261719
1290.302734	8969.927734
1289.240234	8909.204102
1288.177734	9156.708008
1287.114258	9020.698242
1286.051758	9098.750977
1284.988281	9127.394531
1283.924805	9212.441406
1282.861328	9508.971680
1281.796875	9499.913086
1280.732422	9753.969727
1279.667969	9890.482422
1278.603516	10186.615234
1277.539063	10219.676758
1276.473633	10701.045898
1275.408203	10799.691406
1274.342773	10844.331055
1273.277344	11083.647461
1272.210938	11254.849609
1271.145508	11182.125000
1270.079102	11247.740234
1269.011719	11069.577148
1267.945313	10877.427734
1266.877930	10624.447266
1265.810547	10334.097656
1264.743164	10196.084961
1263.674805	9793.565430
1262.607422	9573.796875
1261.539063	9445.392578
1260.470703	9017.547852
1259.401367	9032.010742
1258.333008	8936.542969
1257.263672	8983.751953
1256.194336	8659.228516
1255.125000	8566.236328
1254.054688	8442.904297
1252.985352	8459.802734
1251.915039	8331.872070
1250.843750	8360.462891
1249.773438	8323.665039
1248.702148	8352.243164
1247.630859	8180.099121
1246.559570	8295.028320
1245.488281	8225.613281
1244.416016	8065.265137
1243.343750	8035.568359
1242.271484	8085.149902
1241.199219	8160.349121
1240.125977	7925.577148
1239.053711	8128.920410
1237.980469	8162.131348
1236.906250	8186.012695
1235.833008	8219.196289
1234.758789	8284.956055
1233.684570	8453.091797
1232.610352	8227.910156
1231.536133	8300.602539
1230.460938	8282.553711
1229.385742	8373.805664
1228.310547	8448.744141
1227.235352	8481.810547
1226.159180	8338.243164
1225.083008	8457.284180
1224.006836	8339.334961
1222.930664	8386.328125
1221.853516	8280.051758
1220.777344	8573.110352
1219.700195	8385.604492
1218.622070	8221.383789
1217.544922	8235.869141
1216.466797	8282.820313
1215.388672	8206.844727
1214.310547	8367.385742
1213.232422	8402.687500
1212.153320	8331.368164
1211.074219	8334.222656
1209.995117	8383.404297
1208.916016	8513.625000
1207.835938	8778.088867
1206.755859	8482.206055
1205.675781	8649.352539
1204.595703	8455.439453
1203.514648	8499.901367
1202.434570	8509.648438
1201.353516	8445.389648
1200.271484	8485.199219
1199.190430	8531.925781
1198.108398	8416.858398
1197.026367	8442.783203
1195.944336	8337.022461
1194.862305	8159.709473
1193.779297	8185.670898
1192.696289	8045.402344
1191.613281	7942.122559
1190.530273	8000.417969
1189.446289	7961.790039
1188.362305	7828.606934
1187.278320	7658.582520
1186.194336	7742.247559
1185.109375	7798.214844
1184.024414	7605.258301
1182.939453	7412.383789
1181.854492	7475.294922
1180.768555	7294.045410
1179.683594	7504.323242
1178.597656	7401.416992
1177.510742	7399.827637
1176.424805	7324.601074
1175.337891	7405.851563
1174.250977	7420.361816
1173.164063	7324.479980
1172.077148	7341.299316
1170.989258	7250.072266
1169.901367	7237.022461
1168.813477	7341.160156
1167.724609	7346.473145
1166.636719	7243.836914
1165.547852	7327.238770
1164.458984	7277.451660
1163.369141	7321.789551
1162.280273	7113.687012
1161.190430	7153.451660
1160.100586	7204.667480
1159.010742	7203.115723
1157.919922	7180.929199
1156.829102	7264.195801
1155.738281	7407.011719
1154.647461	7371.045898
1153.555664	7225.137695
1152.464844	7406.802734
1151.373047	7325.062500
1150.280273	7387.583008
1149.188477	7415.743652
1148.095703	7530.847656
1147.002930	7584.130371
1145.910156	7644.250977
1144.817383	7491.669434
1143.723633	7695.822754
1142.629883	7639.300293
1141.536133	7710.781250
1140.441406	7645.139160
1139.347656	7593.230957
1138.252930	7628.131836
1137.158203	7505.463867
1136.062500	7394.262695
1134.967773	7575.254883
1133.872070	7655.765137
1132.776367	7428.250000
1131.679688	7449.451660
1130.583984	7602.908203
1129.487305	7320.832031
1128.390625	7522.116211
1127.292969	7545.555664
1126.196289	7443.670410
1125.098633	7350.939941
1124.000977	7383.509277
1122.903320	7575.451172
1121.804688	7455.433105
1120.706055	7526.648438
1119.607422	7561.424316
1118.508789	7375.510742
1117.409180	7305.676270
1116.310547	7354.119629
1115.210938	7482.114258
1114.110352	7232.731934
1113.010742	7333.425781
1111.910156	7300.025391
1110.809570	7277.996582
1109.708984	7410.407715
1108.607422	7252.130371
1107.506836	7191.533203
1106.405273	7076.492676
1105.303711	7283.708984
1104.201172	7166.428711
1103.098633	7108.168945
1101.996094	7122.496094
1100.893555	7055.201660
1099.791016	7185.129883
1098.687500	7081.591797
1097.583984	7012.082520
1096.480469	6992.435547
1095.376953	7076.969238
1094.272461	6892.033203
1093.167969	6910.905273
1092.063477	6841.505859
1090.958008	6984.825684
1089.853516	6743.514160
1088.748047	6864.174805
1087.642578	7048.095703
1086.536133	7114.379883
1085.430664	6950.094727
1084.324219	6937.280273
1083.217773	6953.840820
1082.110352	6859.716797
1081.003906	6912.416992
1079.896484	7154.743652
1078.789063	6936.486816
1077.680664	6964.310547
1076.573242	6996.633301
1075.464844	7010.895508
1074.356445	6982.300781
1073.247070	6980.775391
1072.138672	7010.810059
1071.029297	6898.842285
1069.919922	7016.758789
1068.809570	6972.421387
1067.700195	7004.681152
1066.589844	7072.955566
1065.479492	6875.542969
1064.368164	6997.834473
1063.257813	6955.796875
1062.146484	7033.019043
1061.035156	7017.982910
1059.922852	6877.017090
1058.811523	7030.648438
1057.699219	7186.459473
1056.586914	7038.805176
1055.473633	7059.731445
1054.361328	6972.821289
1053.248047	6901.669434
1052.134766	6931.592285
1051.021484	7053.542969
1049.907227	7103.617676
1048.792969	7149.182129
1047.678711	7109.475098
1046.564453	7132.586914
1045.449219	7218.477539
1044.333984	7118.246094
1043.218750	7069.612305
1042.103516	7184.590820
1040.987305	7277.113281
1039.871094	7262.074707
1038.754883	7341.101074
1037.638672	7395.462891
1036.521484	7496.809082
1035.404297	7539.921875
1034.287109	7350.310547
1033.169922	7487.390625
1032.051758	7362.733398
1030.933594	7501.984863
1029.815430	7569.636719
1028.697266	7458.452148
1027.578125	7648.984375
1026.458984	7908.688965
1025.339844	7576.374512
1024.220703	7844.911621
1023.100586	7724.854980
1021.980469	7888.330078
1020.860352	7937.918945
1019.740234	7846.923828
1018.619141	7985.724609
1017.498047	8006.265137
1016.376953	8000.040039
1015.255859	7960.379395
1014.133789	7956.394531
1013.011719	7968.007813
1011.889648	7997.437012
1010.767578	7917.719238
1009.644531	8078.521484
1008.521484	7856.341309
1007.398438	7847.928711
1006.274414	7997.511230
1005.151367	8078.060059
1004.027344	7909.455566
1002.902344	7763.162598
1001.778320	7903.735840
1000.653320	7813.077148
999.528320	7775.792480
998.403320	7885.162598
997.278320	7754.582031
996.152344	7626.279785
995.026367	7562.422852
993.900391	7534.110840
992.773438	7519.126953
991.646484	7734.909180
990.519531	7549.072266
989.392578	7689.343262
988.265625	7532.423340
987.137695	7692.586914
986.009766	7571.196777
984.881836	7540.711426
983.752930	7669.749023
982.624023	7608.245117
981.495117	7602.128906
980.366211	7624.795898
979.236328	7609.823242
978.106445	7481.996094
976.976563	7599.808594
975.846680	7591.485352
974.715820	7737.968750
973.585938	7512.940430
972.454102	7615.165039
971.323242	7509.603027
970.191406	7583.058105
969.060547	7605.671875
967.927734	7663.611816
966.795898	7774.518066
965.663086	7781.619629
964.530273	7850.515137
963.397461	7965.716797
962.264648	7930.853516
961.130859	7964.377930
959.997070	7989.066895
958.863281	8104.132324
957.729492	8111.144531
956.594727	8133.578613
955.459961	8043.641602
954.325195	7814.977539
953.189453	7747.171875
952.053711	7800.486816
950.917969	7539.010254
949.782227	7550.533691
948.646484	7474.043945
947.509766	7428.383301
946.373047	7470.710938
945.235352	7394.287598
944.098633	7320.096680
942.960938	7351.429199
941.823242	7376.155273
940.685547	7332.770508
939.546875	7269.637695
938.408203	7399.760742
937.269531	7398.108398
936.129883	7317.442871
934.991211	7489.158203
933.851563	7509.422852
932.711914	7536.257324
931.571289	7615.707520
930.431641	7581.119629
929.291016	7568.465332
928.149414	7564.581055
927.008789	7591.370117
925.867188	7587.481445
924.725586	7568.264160
923.583984	7518.403809
922.441406	7446.675293
921.299805	7434.065918
920.157227	7441.153320
919.013672	7432.924316
917.871094	7230.059570
916.727539	7221.880371
915.583984	7126.265625
914.439453	6927.975098
913.295898	6889.277344
912.151367	7040.647461
911.006836	6986.652832
909.861328	7039.673828
908.716797	7005.349121
907.571289	6966.674316
906.424805	6888.739258
905.279297	6987.544922
904.132813	7064.495117
902.986328	7030.200684
901.839844	7046.062500
900.692383	6948.577637
899.545898	7027.644043
898.398438	7004.279297
897.250000	7113.790039
896.102539	7216.718750
894.954102	7149.781738
893.805664	7246.124512
892.656250	7074.753418
891.507813	7025.297363
890.358398	7112.900391
889.208984	6954.721191
888.058594	7029.253906
886.908203	7045.062012
885.758789	7078.248535
884.607422	6905.007813
883.457031	6949.070313
882.305664	6908.413574
881.154297	6926.399414
880.002930	6885.765137
878.850586	6858.169922
877.698242	6969.455078
876.545898	6970.053711
875.393555	6825.339355
874.240234	6789.106934
873.086914	6811.422852
871.933594	6825.058594
870.780273	6903.693848
869.625977	6756.987793
868.471680	6722.974609
867.317383	6730.119629
866.162109	6778.394043
865.007813	6698.943848
863.852539	6762.350098
862.696289	6832.217285
861.541016	6908.541504
860.384766	6874.543945
859.228516	6702.192871
858.072266	6739.585938
856.915039	6869.885254
855.757813	6881.295410
854.600586	6812.778809
853.442383	6735.653809
852.285156	6783.789551
851.126953	6836.219727
849.968750	6806.618164
848.809570	7027.311523
847.650391	6792.752930
846.491211	6689.854492
845.332031	6802.615723
844.171875	6814.009766
843.012695	6646.519531
841.851563	6899.266113
840.691406	6781.377441
839.530273	6896.141113
838.369141	6879.506348
837.208008	6942.529297
836.046875	6986.152832
834.884766	6926.472168
833.722656	6774.313965
832.560547	6811.492188
831.397461	6784.144043
830.234375	6797.654297
829.071289	6843.396973
827.908203	6813.910156
826.744141	6851.034180
825.580078	6853.774902
824.416016	6811.419922
823.251953	6831.342285
822.086914	6816.913086
820.921875	6836.824219
819.756836	6899.633789
818.590820	6814.415039
817.425781	6992.999512
816.259766	6980.690918
815.092773	6891.223145
813.926758	6938.945313
812.759766	6995.215332
811.592773	6965.778809
810.424805	6722.204590
809.257813	7016.137207
808.089844	6877.547363
806.920898	6758.280273
805.752930	7007.071777
804.583984	6909.218750
803.415039	6819.964355
802.246094	6933.870117
801.076172	6823.273438
799.906250	6996.964355
798.736328	6978.278320
797.566406	6897.651367
796.395508	7054.120117
795.224609	7071.729980
794.053711	7168.314941
792.881836	7305.405273
791.710938	7265.333496
790.538086	7430.070313
789.366211	7434.775391
788.194336	7471.460938
787.021484	7442.044434
785.848633	7154.753906
784.674805	7212.784668
783.500977	7251.615723
782.327148	7235.052734
781.153320	7018.337402
779.979492	7027.380371
778.804688	7085.371094
777.629883	7002.894043
776.454102	7026.824219
775.279297	6833.796875
774.103516	6906.661621
772.927734	6843.432129
771.750977	6869.500000
770.575195	6895.555176
769.398438	6955.590332
768.220703	6854.172852
767.043945	7069.205566
765.866211	7027.251953
764.688477	7104.180176
763.510742	6939.157227
762.332031	6837.855957
761.153320	7071.733887
759.974609	7084.960938
758.794922	7259.311035
757.616211	7297.923340
756.436523	7300.492188
755.255859	7527.638184
754.076172	7636.061035
752.895508	7848.201172
751.714844	7892.983398
750.533203	8005.479980
749.352539	8433.245117
748.170898	8812.151367
746.988281	9241.650391
745.806641	9971.251953
744.624023	10964.807617
743.441406	12414.492188
742.258789	14518.648438
741.075195	16955.669922
739.891602	20587.175781
738.708008	24111.421875
737.523438	27868.416016
736.339844	30916.525391
735.155273	33693.101563
733.969727	34176.992188
732.785156	33867.500000
731.599609	31594.683594
730.414063	28544.871094
729.227539	24518.333984
728.041992	20782.376953
726.855469	17328.369141
725.667969	14484.742188
724.481445	12689.141602
723.293945	11283.900391
722.106445	10098.235352
720.918945	9342.458008
719.730469	8927.899414
718.541992	8423.073242
717.353516	8048.875488
716.164063	7634.897949
714.975586	7647.858887
713.786133	7423.318359
712.595703	7249.310059
711.406250	7043.869629
710.215820	7010.746094
709.025391	7023.833008
707.833984	6999.125977
706.642578	6951.342285
705.451172	6899.383301
704.259766	6883.111816
703.068359	7091.267090
701.875977	6777.197266
700.683594	6903.520020
699.490234	6862.108887
698.297852	6898.248047
697.104492	6995.124512
695.910156	7043.782715
694.716797	7109.169922
693.522461	7308.512207
692.328125	7252.410156
691.132813	7531.144531
689.938477	7673.764160
688.743164	7669.905273
687.547852	7666.047852
686.351563	7599.472168
685.155273	7484.853027
683.958984	7347.299805
682.762695	7539.902344
681.565430	7229.035156
680.368164	7181.428223
679.170898	7181.861328
677.973633	7221.951172
676.775391	7090.905762
675.577148	6945.315918
674.378906	6889.482910
673.179688	6952.540039
671.980469	6973.870605
670.781250	6905.562012
669.581055	6903.969238
668.381836	6871.125488
667.181641	7065.336914
665.980469	7080.366699
664.780273	7020.437500
663.579102	7141.625977
662.377930	7152.464355
661.175781	7273.565430
659.973633	7290.607422
658.771484	7484.404785
657.569336	7592.869141
656.367188	7711.676270
655.164063	7834.583984
653.960938	7855.629395
652.756836	8065.687500
651.552734	8063.825195
650.348633	8269.584961
649.144531	8514.687500
647.939453	8286.517578
646.735352	8510.753906
645.529297	8355.290039
644.324219	8481.936523
643.118164	8610.596680
641.912109	8538.129883
640.706055	8590.038086
639.499023	8662.641602
638.292969	8706.210938
637.084961	8770.468750
635.877930	9072.799805
634.669922	9087.262695
633.461914	9246.583008
632.253906	9443.072266
631.044922	9571.208008
629.836914	9813.027344
628.626953	9759.068359
627.417969	9736.139648
626.208008	9436.291016
624.998047	9299.807617
623.788086	9027.050781
622.577148	8839.093750
621.366211	8405.519531
620.155273	8151.735352
618.944336	8069.361816
617.732422	7962.266113
616.520508	7799.523438
615.308594	7523.426758
614.095703	7455.705566
612.882813	7392.137695
611.669922	7260.589355
610.457031	7141.463379
609.243164	7045.051758
608.029297	7033.123535
606.815430	6739.116211
605.600586	6760.199707
604.385742	6941.800293
603.170898	6742.665527
601.955078	6901.557129
600.740234	6957.543945
599.524414	6783.216309
598.307617	6909.096191
597.091797	6866.392090
595.875000	7037.396973
594.658203	6916.620605
593.440430	6814.383789
592.222656	6816.911133
591.004883	7061.668945
589.787109	6951.258789
588.568359	6906.558594
587.349609	6837.262207
586.130859	6905.408203
584.912109	6928.413086
583.692383	6976.005859
582.472656	6943.646484
581.251953	7054.731934
580.032227	7188.299805
578.811523	7137.479492
577.589844	7211.585449
576.369141	7136.217285
575.147461	7259.407227
573.925781	7239.308105
572.703125	7233.538086
571.481445	7413.884277
570.258789	7451.014648
569.035156	7578.075195
567.812500	7525.222656
566.588867	7637.902832
565.365234	7703.544922
564.140625	7828.384277
562.916992	7644.840332
561.692383	7745.137695
560.466797	7469.854492
559.242188	7617.075684
558.016602	7552.068359
556.791016	7472.814453
555.564453	7528.173828
554.337891	7493.809570
553.111328	7492.070801
551.884766	7363.999023
550.657227	7376.550293
549.429688	7452.232910
548.202148	7440.322266
546.974609	7389.737793
545.746094	7412.445801
544.517578	7304.916016
543.288086	7465.966797
542.058594	7352.372070
540.829102	7368.965820
539.599609	7399.781738
538.370117	7359.447754
537.139648	7424.794434
535.909180	7384.472656
534.677734	7277.145508
533.446289	7391.197266
532.214844	7127.601563
530.983398	7194.953125
529.750977	7292.710449
528.519531	7130.752930
527.286133	6903.968262
526.053711	7172.052246
524.820313	7040.643066
523.586914	7120.079590
522.353516	7163.005371
521.119141	7197.807129
519.884766	7277.150879
518.650391	7052.722168
517.415039	6945.814453
516.179688	7025.160156
514.944336	6985.082520
513.708984	7011.782715
