#Wave		#Intensity
2109.224609	6134.565430
2107.712891	6308.231934
2106.201172	6232.455078
2104.687500	6184.816895
2103.175781	6203.314453
2101.662109	6259.812988
2100.150391	6187.416504
2098.636719	6154.695801
2097.123047	6197.956543
2095.607422	6185.060547
2094.093750	6309.183105
2092.578125	6235.204102
2091.064453	6260.259766
2089.548828	6186.323730
2088.033203	6117.367188
2086.517578	6168.815918
2085.000000	6263.106445
2083.484375	6148.026855
2081.966797	6131.871582
2080.449219	6151.969238
2078.931641	6129.231445
2077.414063	6174.023926
2075.894531	6215.503906
2074.376953	6153.259766
2072.857422	6239.162598
2071.337891	6175.294922
2069.818359	6144.355957
2068.298828	6195.666504
2066.777344	6066.074219
2065.257813	5997.366211
2063.736328	6086.479492
2062.214844	6196.917480
2060.693359	6123.296875
2059.171875	6209.040527
2057.648438	6068.116699
2056.126953	6071.740723
2054.603516	6186.987793
2053.080078	6128.219238
2051.556641	6167.926270
2050.033203	6171.525391
2048.507813	6030.791016
2046.984375	6142.644043
2045.458984	6169.198242
2043.933594	6133.456055
2042.408203	6137.058594
2040.882813	6124.276367
2039.355469	6068.910156
2037.830078	6142.944336
2036.302734	6092.510254
2034.775391	6068.289063
2033.248047	6150.458984
2031.718750	6023.149902
2030.191406	6121.653809
2028.662109	6146.514648
2027.134766	6159.917969
2025.605469	6016.366699
2024.076172	6144.209473
2022.544922	6160.873047
2021.015625	6097.471191
2019.484375	5976.924805
2017.955078	6080.169434
2016.423828	6093.566406
2014.892578	6072.676758
2013.359375	6112.183105
2011.828125	6185.938965
2010.294922	6050.845215
2008.761719	6168.621094
2007.230469	6128.168945
2005.695313	6009.477051
2004.162109	6065.246094
2002.628906	6044.397461
2001.093750	6179.971191
1999.558594	6134.672363
1998.023438	6011.219238
1996.488281	6101.121582
1994.953125	6034.705566
1993.417969	6017.144531
1991.880859	6038.644531
1990.343750	6092.673340
1988.806641	6019.809082
1987.269531	6077.070313
1985.732422	6087.158203
1984.193359	6024.094238
1982.656250	6086.193848
1981.117188	5982.536621
1979.578125	6031.622559
1978.039063	6132.659180
1976.500000	6121.612793
1974.958984	6108.947266
1973.417969	6104.402832
1971.878906	6028.459961
1970.337891	6032.045898
1968.796875	6066.449219
1967.253906	5954.884766
1965.712891	6059.008301
1964.169922	5856.715820
1962.626953	5933.264160
1961.083984	6064.871094
1959.541016	5968.004883
1957.998047	5984.553711
1956.455078	6004.334473
1954.910156	6059.723145
1953.365234	5977.506836
1951.820313	5966.529297
1950.275391	6107.640137
1948.730469	6036.789063
1947.183594	5953.029785
1945.638672	5942.065918
1944.091797	5965.053711
1942.544922	6007.426270
1940.998047	5977.067383
1939.449219	6119.581055
1937.902344	5993.915527
1936.353516	5781.102051
1934.804688	6005.905273
1933.255859	6017.545898
1931.707031	5866.187012
1930.158203	5969.819336
1928.607422	5941.131348
1927.058594	6014.061035
1925.507813	5954.739258
1923.957031	5884.157715
1922.406250	5950.605469
1920.853516	5892.945801
1919.302734	5919.086426
1917.750000	5933.940430
1916.197266	5945.567383
1914.644531	5968.459473
1913.091797	5909.246582
1911.539063	5885.464844
1909.984375	5847.211426
1908.431641	5892.625977
1906.876953	5889.770996
1905.322266	5902.997070
1903.767578	5951.585449
1902.210938	5926.216797
1900.656250	6008.526367
1899.099609	5873.903809
1897.542969	5948.157715
1895.986328	5927.627930
1894.429688	5863.754883
1892.873047	5937.963379
1891.314453	5896.583984
1889.755859	5988.404785
1888.199219	5847.566895
1886.640625	5782.173340
1885.080078	5824.248047
1883.521484	5880.733887
1881.960938	6020.546875
1880.402344	5998.440918
1878.841797	5902.641113
1877.281250	6015.128418
1875.720703	5856.904297
1874.158203	5777.206543
1872.597656	5767.981445
1871.035156	5878.800293
1869.472656	5933.565430
1867.910156	5903.514160
1866.347656	5855.880371
1864.783203	5808.266602
1863.220703	5784.655273
1861.656250	5759.455566
1860.091797	5905.271484
1858.527344	5808.153320
1856.962891	5904.374023
1855.396484	5911.112793
1853.832031	5908.267090
1852.265625	5905.422852
1850.699219	6009.521484
1849.132813	5933.249023
1847.566406	5947.950195
1845.998047	5999.333984
1844.431641	5811.474609
1842.863281	5972.882813
1841.294922	5874.379395
1839.726563	5817.355957
1838.156250	5889.426758
1836.587891	5783.036621
1835.017578	5904.459961
1833.449219	5876.141602
1831.878906	5761.860352
1830.306641	5867.292969
1828.736328	5916.979980
1827.166016	5990.512695
1825.593750	5876.302734
1824.021484	5833.710938
1822.449219	5862.690918
1820.876953	5910.735352
1819.304688	5782.333008
1817.730469	5736.617676
1816.158203	5846.619141
1814.583984	5940.689453
1813.009766	5904.497559
1811.435547	5823.863281
1809.859375	5859.144043
1808.285156	5784.900879
1806.708984	5753.531250
1805.132813	5726.933594
1803.556641	5897.020508
1801.980469	5852.959961
1800.404297	5888.188477
1798.826172	5796.596191
1797.248047	5836.574707
1795.671875	5824.251465
1794.093750	5829.357910
1792.513672	5843.963867
1790.935547	5844.312988
1789.355469	5760.759766
1787.777344	5723.140137
1786.197266	5823.204590
1784.617188	5874.182617
1783.035156	5812.836426
1781.455078	5738.864746
1779.873047	5823.029297
1778.292969	5823.379883
1776.710938	5800.024414
1775.128906	5751.397461
1773.544922	5718.587891
1771.962891	5913.224121
1770.378906	5907.237305
1768.794922	5814.423828
1767.212891	5838.449219
1765.626953	5747.266602
1764.042969	5788.650879
1762.458984	5951.475586
1760.873047	5754.663574
1759.287109	5840.166992
1757.701172	5862.578613
1756.115234	5815.633789
1754.529297	6001.915527
1752.941406	5847.834473
1751.355469	5827.697754
1749.767578	5930.397461
1748.179688	5804.767090
1746.591797	5789.373535
1745.001953	5862.114258
1743.414063	5944.264648
1741.824219	5873.792969
1740.234375	5981.069336
1738.644531	5866.592285
1737.054688	5964.391113
1735.462891	5917.549805
1733.873047	5958.726074
1732.281250	5944.896973
1730.689453	6074.010254
1729.097656	5915.685547
1727.505859	6013.348145
1725.912109	5957.135254
1724.320313	5929.194824
1722.726563	6067.587402
1721.132813	5991.004395
1719.539063	6152.850586
1717.945313	6106.074219
1716.349609	6123.594727
1714.755859	6006.310547
1713.160156	6058.319336
1711.564453	6125.973633
1709.968750	6112.145508
1708.371094	6139.041016
1706.775391	6101.729004
1705.177734	6105.132813
1703.580078	6056.887207
1701.982422	6163.572754
1700.384766	6129.414063
1698.787109	6089.013672
1697.187500	6261.301270
1695.587891	6228.706055
1693.990234	6211.755371
1692.390625	6202.625000
1690.789063	6090.377930
1689.189453	6175.002930
1687.587891	6104.975586
1685.988281	6220.790039
1684.386719	6166.393555
1682.785156	6188.497559
1681.181641	6180.943848
1679.580078	6165.591797
1677.976563	6170.523438
1676.373047	6272.139160
1674.769531	6283.281738
1673.166016	6236.743652
1671.562500	6339.837891
1669.957031	6123.470215
1668.353516	6320.011719
1666.748047	6374.739746
1665.142578	6376.500977
1663.537109	6409.397461
1661.929688	6460.957031
1660.324219	6524.943848
1658.716797	6691.586914
1657.109375	6683.944336
1655.501953	6713.627930
1653.894531	6747.962891
1652.285156	6978.149902
1650.677734	7013.967773
1649.068359	7021.800293
1647.458984	7059.145996
1645.849609	7127.539063
1644.240234	7228.512207
1642.628906	7237.843262
1641.019531	7256.482910
1639.408203	7344.948242
1637.796875	7434.926758
1636.185547	7352.683105
1634.572266	7593.054688
1632.960938	7548.024414
1631.347656	7653.383301
1629.734375	7757.146484
1628.121094	7822.126953
1626.507813	7907.218262
1624.894531	7855.970703
1623.279297	8139.233887
1621.664063	8199.429688
1620.048828	8236.381836
1618.433594	8508.547852
1616.818359	8407.712891
1615.203125	8631.770508
1613.585938	8759.844727
1611.968750	8911.057617
1610.351563	9051.383789
1608.734375	9171.556641
1607.117188	9554.373047
1605.498047	9570.875000
1603.878906	9533.308594
1602.261719	9738.208984
1600.640625	9765.467773
1599.021484	9940.900391
1597.402344	9941.866211
1595.781250	9987.577148
1594.162109	9857.408203
1592.541016	9852.219727
1590.919922	10027.443359
1589.296875	9832.597656
1587.675781	9899.857422
1586.052734	9715.907227
1584.429688	9880.223633
1582.806641	9976.693359
1581.183594	9842.123047
1579.560547	9909.304688
1577.935547	9987.233398
1576.312500	9958.935547
1574.687500	9822.941406
1573.062500	9957.754883
1571.435547	10047.907227
1569.810547	9850.471680
1568.183594	10026.699219
1566.558594	10030.702148
1564.931641	9968.625000
1563.304688	9894.282227
1561.675781	9738.559570
1560.048828	9592.117188
1558.419922	9488.727539
1556.791016	9443.714844
1555.162109	9345.003906
1553.533203	9229.456055
1551.904297	9508.215820
1550.273438	9374.276367
1548.642578	9163.721680
1547.011719	9255.276367
1545.380859	9248.694336
1543.750000	9369.306641
1542.119141	9194.169922
1540.486328	9189.134766
1538.853516	9223.917969
1537.220703	9053.516602
1535.587891	9209.245117
1533.955078	8974.638672
1532.320313	8867.132813
1530.685547	8875.938477
1529.052734	8964.271484
1527.416016	8866.009766
1525.781250	8786.135742
1524.146484	8634.456055
1522.509766	8543.967773
1520.873047	8477.962891
1519.236328	8288.256836
1517.599609	8240.660156
1515.962891	8217.512695
1514.324219	8139.419434
1512.687500	8244.501953
1511.048828	8068.780273
1509.410156	8019.752441
1507.771484	7891.434082
1506.130859	8033.074707
1504.492188	7810.285156
1502.851563	7903.105469
1501.210938	7890.736328
1499.570313	7812.858398
1497.927734	7617.724121
1496.287109	7609.991211
1494.644531	7453.047852
1493.001953	7402.729004
1491.359375	7416.352539
1489.716797	7262.593750
1488.074219	7302.101563
1486.429688	7189.497559
1484.785156	7186.426270
1483.140625	7095.178711
1481.496094	6943.171387
1479.851563	6956.869141
1478.207031	6833.822754
1476.560547	6773.107422
1474.914063	6932.621094
1473.267578	6903.793457
1471.621094	6791.488770
1469.972656	6802.162109
1468.326172	6770.345215
1466.677734	6885.691406
1465.029297	6806.852051
1463.380859	6762.921875
1461.732422	6855.452637
1460.082031	6890.346191
1458.431641	6934.315918
1456.783203	6820.702148
1455.132813	6834.373047
1453.480469	7010.075684
1451.830078	6639.128418
1450.177734	6783.008301
1448.527344	6823.914063
1446.875000	6745.268555
1445.220703	6733.217285
1443.568359	6793.767090
1441.916016	6830.096191
1440.261719	6793.844238
1438.607422	6889.102539
1436.953125	6898.185547
1435.298828	6843.811523
1433.642578	6932.953125
1431.988281	6898.225586
1430.332031	6670.258789
1428.675781	6703.528320
1427.019531	6587.377930
1425.361328	6502.961914
1423.705078	6340.141602
1422.046875	6432.269043
1420.388672	6393.175293
1418.730469	6372.187500
1417.072266	6429.581543
1415.412109	6434.210449
1413.753906	6289.691895
1412.093750	6246.149902
1410.433594	6405.916992
1408.773438	6290.102051
1407.111328	6385.065430
1405.451172	6428.820801
1403.789063	6474.061523
1402.126953	6456.104492
1400.464844	6412.588379
1398.802734	6328.494629
1397.138672	6474.432129
1395.474609	6366.313965
1393.812500	6337.878906
1392.146484	6304.948730
1390.482422	6366.653809
1388.818359	6303.698730
1387.152344	6419.421875
1385.486328	6329.464355
1383.820313	6287.565430
1382.154297	6278.690918
1380.488281	6353.816895
1378.820313	6416.912109
1377.154297	6312.057617
1375.486328	6249.219727
1373.818359	6309.297852
1372.148438	6265.964844
1370.480469	6405.405273
1368.810547	6197.326172
1367.140625	6381.639160
1365.470703	6294.913086
1363.800781	6280.064453
1362.130859	6380.440918
1360.458984	6302.746094
1358.787109	6424.012207
1357.115234	6385.220215
1355.443359	6306.078125
1353.771484	6342.063477
1352.097656	6322.740234
1350.423828	6252.626465
1348.751953	6316.979004
1347.076172	6296.178223
1345.402344	6252.990234
1343.728516	6171.009277
1342.052734	6215.918945
1340.376953	6248.872070
1338.701172	6113.240723
1337.025391	6177.520508
1335.347656	6177.653809
1333.671875	6222.509766
1331.994141	6173.447266
1330.316406	6163.148438
1328.638672	6140.935547
1326.960938	6088.942383
1325.281250	6133.765625
1323.601563	6272.363770
1321.921875	6309.683105
1320.242188	6299.364746
1318.562500	6375.344238
1316.880859	6433.439453
1315.201172	6417.149902
1313.519531	6304.222168
1311.837891	6307.291504
1310.154297	6512.480957
1308.472656	6463.496582
1306.789063	6359.568848
1305.105469	6566.094238
1303.421875	6444.369629
1301.738281	6592.886230
1300.054688	6609.241211
1298.369141	6506.876465
1296.683594	6517.307617
1294.998047	6536.632324
1293.312500	6423.969238
1291.626953	6339.524414
1289.939453	6483.383301
1288.253906	6470.093750
1286.566406	6338.281738
1284.878906	6359.098145
1283.189453	6342.881348
1281.501953	6412.546387
1279.812500	6399.284180
1278.123047	6260.230469
1276.433594	6278.078613
1274.744141	6291.480469
1273.052734	6288.606934
1271.363281	6236.938477
1269.671875	6157.204590
1267.980469	6010.995605
1266.289063	6076.156738
1264.595703	6226.974121
1262.904297	6060.166992
1261.210938	6100.168945
1259.517578	6058.952637
1257.824219	6134.359863
1256.128906	6097.580566
1254.435547	5973.769531
1252.740234	5909.015137
1251.044922	5968.164551
1249.349609	5927.029297
1247.652344	5983.198730
1245.957031	5878.706543
1244.259766	5872.978516
1242.562500	5971.839844
1240.865234	5901.291504
1239.167969	5876.418457
1237.468750	5903.079102
1235.769531	5842.893555
1234.072266	5916.634766
1232.371094	5785.858398
1230.671875	5841.928711
1228.972656	5842.096680
1227.271484	5770.227539
1225.570313	5807.154785
1223.869141	5877.862793
1222.167969	5716.414551
1220.464844	5696.043945
1218.763672	5784.349121
1217.060547	5819.760742
1215.357422	5806.717773
1213.654297	5836.237793
1211.949219	5739.566895
1210.246094	5739.750488
1208.541016	5794.194336
1206.835938	5882.335938
1205.130859	5816.521973
1203.423828	5847.461914
1201.718750	5827.104980
1200.011719	5919.552246
1198.304688	5757.126465
1196.597656	5798.299316
1194.888672	5886.297363
1193.181641	5791.310059
1191.472656	5869.026367
1189.763672	5895.505859
1188.054688	5914.659668
1186.343750	5866.541016
1184.634766	5891.539063
1182.923828	5954.526855
1181.212891	5843.595215
1179.501953	5881.728516
1177.791016	5826.365234
1176.078125	5848.420410
1174.365234	5705.491211
1172.652344	5771.351563
1170.939453	5821.129395
1169.226563	5866.507324
1167.511719	5741.203613
1165.798828	5869.701660
1164.083984	5798.397949
1162.369141	5712.548828
1160.652344	5874.483398
1158.937500	5648.782715
1157.220703	5889.317383
1155.503906	5806.435547
1153.787109	5864.823730
1152.070313	5614.579590
1150.351563	5721.010254
1148.632813	5617.868164
1146.916016	5618.055664
1145.195313	5663.328125
1143.476563	5490.473145
1141.757813	5553.197266
1140.037109	5533.049316
1138.316406	5528.894043
1136.595703	5518.928711
1134.875000	5434.894531
1133.152344	5480.132813
1131.429688	5368.561523
1129.708984	5307.839355
1127.984375	5312.443359
1126.261719	5161.813477
1124.539063	5173.699219
1122.814453	5055.069824
1121.089844	5056.825195
1119.365234	4935.375977
1117.640625	5009.612793
1115.914063	4917.204102
1114.187500	4929.125977
1112.462891	4965.660645
1110.734375	4882.010254
1109.007813	4922.879883
1107.281250	5002.804199
1105.552734	4968.392578
1103.824219	4900.726563
1102.095703	4833.090332
1100.367188	4885.489746
1098.636719	4984.120605
1096.908203	4822.573242
1095.177734	5041.095703
1093.447266	4924.388184
1091.714844	4842.394043
1089.984375	4909.155273
1088.251953	4817.096191
1086.519531	4816.000488
1084.787109	4799.033203
1083.054688	4805.154297
1081.320313	4776.658691
1079.585938	4824.595703
1077.851563	4803.315430
1076.117188	4783.485352
1074.382813	4835.709473
1072.648438	4764.019043
1070.912109	4738.448730
1069.175781	4659.612793
1067.439453	4588.009766
1065.701172	4684.833984
1063.964844	4698.154785
1062.226563	4744.557617
1060.488281	4753.542480
1058.750000	4607.223633
1057.011719	4634.924316
1055.271484	4712.917480
1053.531250	4729.084961
1051.791016	4653.298828
1050.050781	4626.381836
1048.310547	4730.151367
1046.568359	4556.790527
1044.826172	4653.351074
1043.083984	4579.101563
1041.341797	4632.571777
1039.599609	4641.552246
1037.855469	4542.976563
1036.113281	4560.574219
1034.369141	4654.131836
1032.623047	4561.351563
1030.878906	4571.768555
1029.132813	4577.882813
1027.386719	4503.798828
1025.640625	4541.422852
1023.894531	4480.263184
1022.148438	4446.320801
1020.400391	4508.253418
1018.652344	4522.953613
1016.904297	4368.896973
1015.156250	4568.059082
1013.406250	4469.809570
1011.658203	4485.932129
1009.908203	4512.048340
1008.158203	4449.588867
1006.408203	4385.729004
1004.656250	4394.715820
1002.904297	4479.352539
1001.152344	4541.115723
999.400391	4527.229980
997.648438	4558.997559
995.896484	4442.430664
994.142578	4408.614746
992.388672	4515.936523
990.634766	4477.842773
988.878906	4456.863770
987.125000	4474.355469
985.369141	4521.746094
983.613281	4490.803223
981.857422	4461.297852
980.099609	4349.260742
978.343750	4474.892090
976.585938	4443.986816
974.828125	4339.140625
973.070313	4498.811035
971.310547	4415.322754
969.552734	4350.348633
967.792969	4430.334473
966.033203	4403.741211
964.273438	4470.895020
962.511719	4465.602539
960.750000	4494.381348
958.990234	4525.985352
957.226563	4449.735840
955.464844	4580.635742
953.703125	4483.134277
951.939453	4459.410156
950.175781	4414.432129
948.412109	4440.338867
946.648438	4473.317383
944.882813	4428.366211
943.117188	4411.761230
941.351563	4504.193359
939.585938	4462.096191
937.820313	4335.099121
936.052734	4410.503418
934.285156	4413.724609
932.517578	4330.670410
930.750000	4475.307617
928.982422	4393.689941
927.212891	4309.283203
925.443359	4350.673340
923.673828	4324.235352
921.904297	4345.829102
920.132813	4289.750488
918.361328	4300.047363
916.591797	4291.991699
914.818359	4237.374512
913.046875	4302.693359
911.275391	4218.479980
909.501953	4251.340820
907.728516	4185.503906
905.955078	4209.899902
904.179688	4230.056641
902.406250	4240.342285
900.630859	4299.917480
898.855469	4336.935059
897.080078	4247.235840
895.302734	4322.248047
893.525391	4317.020020
891.750000	4310.387207
889.970703	4315.008301
888.193359	4343.531250
886.416016	4298.938965
884.636719	4274.043457
882.857422	4249.159180
881.078125	4210.237793
879.296875	4276.671387
877.517578	4150.702637
875.736328	4156.752930
873.955078	4268.063477
872.173828	4163.231445
870.390625	4225.387695
868.609375	4179.520020
866.826172	4192.565430
865.042969	4101.866211
863.259766	4130.339844
861.474609	4020.079590
859.689453	4135.413086
857.904297	4142.849609
856.119141	4087.271484
854.333984	4051.317871
852.546875	3963.596191
850.761719	4152.966309
848.974609	4059.665527
847.185547	4065.708008
845.398438	4129.076172
843.609375	4154.669922
841.822266	4208.203613
840.031250	4180.669434
838.242188	4228.583008
836.453125	4104.688965
834.662109	4133.048828
832.871094	4264.697266
831.080078	4110.176270
829.289063	4120.375000
827.496094	4002.229004
825.703125	4061.260498
823.910156	4124.446777
822.117188	4048.202393
820.324219	4082.093994
818.529297	3996.141113
816.734375	4117.789063
814.939453	4100.109375
813.144531	4086.614746
811.347656	3957.586426
809.550781	3978.923828
807.755859	3982.162842
805.957031	3833.773926
804.160156	3894.064941
802.361328	3912.614990
800.564453	3883.893066
798.765625	3974.703369
796.964844	3797.310547
795.166016	3820.031738
793.365234	3753.860107
791.564453	3737.703613
789.763672	3813.170410
787.962891	3685.983154
786.160156	3783.625244
784.359375	3789.669678
782.556641	3733.304199
780.751953	3731.038086
778.949219	3645.602783
777.144531	3704.334473
775.339844	3715.930664
773.535156	3776.002441
771.730469	3698.945068
769.925781	3754.838135
768.119141	3838.388672
766.312500	3676.953613
764.505859	3702.373291
762.697266	3725.014160
760.890625	3666.053223
759.082031	3645.831787
757.273438	3701.642822
755.464844	3779.537842
753.654297	3778.645020
751.845703	3685.207764
750.035156	3711.955811
748.224609	3629.622803
746.412109	3798.539795
744.601563	3800.401611
742.789063	3809.160645
740.976563	3844.121826
739.164063	3730.136475
737.349609	3778.885742
735.537109	3693.914063
733.722656	3686.149902
731.908203	3711.453613
730.091797	3641.707764
728.277344	3668.386230
726.460938	3624.840332
724.644531	3648.756592
722.828125	3559.825928
721.009766	3669.040283
719.193359	3620.032471
717.375000	3569.672363
715.556641	3614.193115
713.736328	3710.919922
711.917969	3612.480225
710.097656	3617.118896
708.277344	3658.838135
706.457031	3615.404053
704.636719	3674.949463
702.814453	3634.276367
700.992188	3560.691162
699.169922	3609.231689
697.347656	3583.688721
695.523438	3481.372559
693.699219	3591.583740
691.875000	3559.209717
690.050781	3595.359619
688.226563	3564.369141
686.400391	3633.368896
684.574219	3569.522705
682.748047	3604.265869
680.921875	3637.623535
679.095703	3554.665527
677.267578	3630.423584
675.439453	3673.323730
673.611328	3595.884277
671.781250	3607.332031
669.953125	3713.069824
668.123047	3742.245117
666.292969	3775.504395
664.460938	3810.113037
662.630859	3764.151611
660.798828	3719.576904
658.966797	3887.909668
657.134766	3801.031738
655.302734	3794.671143
653.468750	4054.231934
651.634766	4011.002930
649.800781	4019.589355
647.966797	4003.642822
646.130859	3972.717041
644.294922	3975.857422
642.458984	4036.188721
640.623047	3905.893311
638.787109	3941.712402
636.949219	3946.216553
635.111328	3825.557617
633.273438	3864.089600
631.435547	3840.052490
629.595703	3772.523438
627.757813	3832.785889
625.917969	3694.631348
624.076172	3689.675293
622.236328	3705.093750
620.394531	3611.876465
618.552734	3582.507324
616.710938	3490.720459
614.869141	3518.382324
613.025391	3503.977783
611.183594	3543.828857
609.339844	3511.797607
607.494141	3622.117432
605.650391	3549.424316
603.804688	3436.117676
601.958984	3494.900635
600.113281	3408.746338
598.267578	3543.329346
596.419922	3462.618408
594.572266	3467.205078
592.724609	3523.203125
590.876953	3504.777100
589.027344	3439.027344
587.179688	3461.190430
585.330078	3434.681396
583.480469	3337.912842
581.628906	3350.626221
579.779297	3360.631592
577.927734	3258.547607
576.076172	3292.871582
574.222656	3277.237305
572.371094	3291.297852
570.517578	3250.037598
568.664063	3250.609619
566.810547	3171.620850
564.955078	3162.773926
563.101563	3240.192139
561.246094	3279.842773
559.390625	3301.960938
557.533203	3249.990479
555.677734	3150.915527
553.820313	3228.242920
551.962891	3161.521729
550.105469	3117.707031
548.246094	3174.807373
546.386719	3165.978271
544.527344	3204.214600
542.667969	3203.447998
540.808594	3124.731445
538.947266	3145.482178
537.085938	3237.419189
535.224609	3197.697266
533.363281	3182.162354
531.500000	3133.075928
529.638672	3167.218994
527.775391	3166.460938
525.910156	3256.918213
524.046875	3345.990967
522.181641	3518.147705
520.316406	4030.692627
518.451172	3792.527100
516.585938	3492.844971
514.718750	3399.584961
512.851563	3235.394287
510.984375	3152.950684
509.117188	3059.838379
507.250000	3180.881104
505.380859	3180.119385
503.511719	3164.644775
501.642578	3141.153809
499.771484	3164.465820
497.902344	3239.893555
496.031250	3241.790039
494.160156	3150.168945
492.287109	3158.763672
490.416016	3162.012939
488.542969	3141.230713
486.669922	3095.099365
484.796875	3211.780518
482.921875	3114.960938
481.046875	3084.873047
479.171875	3076.133545
477.296875	3119.387939
475.421875	3090.652588
473.544922	3053.936279
471.667969	3097.164307
469.791016	3136.375977
467.914063	3108.994873
466.035156	3125.554932
464.156250	3078.226563
462.277344	3181.269287
460.398438	3047.487061
458.519531	3076.014160
456.638672	3104.527100
454.757813	3123.721924
452.876953	3141.578125
450.994141	3158.097168
449.113281	3053.733643
447.230469	3179.158936
445.347656	3126.618652
443.462891	3074.103271
441.580078	3111.849854
439.695313	3174.785645
437.810547	3241.669922
435.925781	3182.546387
434.039063	3185.760742
432.152344	3071.010498
430.267578	3222.661865
428.378906	3094.709717
426.492188	3103.239258
424.603516	3085.281494
422.714844	3071.303711
420.826172	3102.332031
418.937500	3008.964355
417.046875	3104.813721
415.158203	3082.908447
413.265625	3096.714600
411.375000	3118.445313
409.484375	3163.954590
407.591797	3061.456055
405.699219	3063.364258
403.806641	3054.706299
401.912109	3183.368652
400.019531	3121.884033
