#Wave		#Intensity
1585.210938	19169.431641
1584.209961	19384.230469
1583.208984	19205.414063
1582.208008	19393.673828
1581.206055	19354.710938
1580.204102	19188.488281
1579.202148	19236.910156
1578.200195	19210.474609
1577.198242	19296.279297
1576.195313	19342.152344
1575.192383	19131.228516
1574.189453	19304.230469
1573.186523	19322.660156
1572.182617	19241.423828
1571.178711	19294.730469
1570.174805	19380.388672
1569.170898	19025.298828
1568.166992	18909.337891
1567.162109	19415.638672
1566.158203	19381.757813
1565.153320	19327.986328
1564.147461	19249.365234
1563.142578	19454.269531
1562.136719	19460.187500
1561.130859	19766.878906
1560.125000	19737.933594
1559.119141	20022.076172
1558.113281	20343.365234
1557.106445	20388.826172
1556.099609	20796.816406
1555.092773	21127.673828
1554.084961	21220.103516
1553.078125	21354.683594
1552.070313	21355.224609
1551.062500	21695.611328
1550.054688	21415.826172
1549.045898	21279.972656
1548.038086	21084.675781
1547.029297	21219.111328
1546.020508	21023.906250
1545.011719	20551.296875
1544.001953	20656.031250
1542.992188	20193.597656
1541.982422	20077.996094
1540.972656	19974.818359
1539.962891	19733.083984
1538.952148	19350.404297
1537.942383	19190.539063
1536.931641	19547.689453
1535.919922	19120.769531
1534.909180	19532.177734
1533.897461	18999.144531
1532.886719	18812.326172
1531.874023	18917.150391
1530.862305	18846.533203
1529.850586	18882.150391
1528.837891	18693.039063
1527.825195	18770.640625
1526.812500	18835.867188
1525.799805	18587.652344
1524.786133	19010.648438
1523.772461	18584.888672
1522.758789	18386.203125
1521.745117	18784.318359
1520.731445	18699.074219
1519.716797	18884.990234
1518.702148	18619.867188
1517.687500	18648.041016
1516.672852	18841.238281
1515.657227	18800.394531
1514.642578	18954.082031
1513.626953	18674.447266
1512.610352	18663.195313
1511.594727	18681.476563
1510.579102	18817.837891
1509.562500	18796.722656
1508.545898	18605.933594
1507.529297	18666.003906
1506.511719	18772.753906
1505.494141	18970.390625
1504.477539	18710.921875
1503.458984	18952.705078
1502.441406	18894.746094
1501.423828	19052.900391
1500.405273	19083.324219
1499.386719	19010.642578
1498.368164	19149.039063
1497.348633	19358.531250
1496.330078	19303.005859
1495.310547	19478.041016
1494.291016	19508.333984
1493.271484	19636.673828
1492.250977	19448.779297
1491.231445	19270.761719
1490.210938	19467.667969
1489.190430	19595.906250
1488.168945	19667.763672
1487.148438	19311.105469
1486.126953	19451.533203
1485.105469	19327.576172
1484.083984	19470.386719
1483.061523	19500.601563
1482.040039	19711.800781
1481.017578	19587.888672
1479.995117	19913.890625
1478.971680	19794.875000
1477.949219	20062.044922
1476.925781	20307.111328
1475.902344	20420.160156
1474.878906	20655.279297
1473.855469	20880.533203
1472.831055	20888.408203
1471.806641	21155.013672
1470.782227	21724.109375
1469.757813	21936.751953
1468.733398	22120.031250
1467.708008	22888.554688
1466.682617	23447.062500
1465.657227	24027.279297
1464.631836	24816.861328
1463.605469	25591.496094
1462.579102	26351.187500
1461.552734	26672.117188
1460.526367	26927.160156
1459.500000	27337.921875
1458.472656	27154.544922
1457.445313	26576.968750
1456.417969	26410.855469
1455.390625	26274.001953
1454.362305	25409.955078
1453.334961	24689.740234
1452.306641	24001.427734
1451.277344	23371.740234
1450.249023	22786.056641
1449.219727	22394.994141
1448.191406	21950.648438
1447.162109	21676.500000
1446.131836	21018.802734
1445.102539	21029.001953
1444.072266	20830.455078
1443.041992	20862.529297
1442.011719	20601.015625
1440.981445	20502.130859
1439.950195	20442.091797
1438.918945	20554.228516
1437.887695	20162.085938
1436.856445	20225.757813
1435.825195	20105.240234
1434.792969	19849.101563
1433.760742	19881.308594
1432.728516	19591.416016
1431.696289	19495.337891
1430.663086	19287.947266
1429.629883	19397.683594
1428.596680	19442.042969
1427.563477	19196.082031
1426.530273	19066.318359
1425.496094	19328.349609
1424.461914	19215.535156
1423.427734	18993.994141
1422.393555	18842.625000
1421.358398	18669.574219
1420.323242	19052.191406
1419.288086	18806.712891
1418.252930	19034.603516
1417.217773	18847.166016
1416.181641	19007.371094
1415.145508	18740.380859
1414.109375	18941.552734
1413.073242	19094.396484
1412.036133	19194.121094
1411.000000	19464.990234
1409.962891	19791.191406
1408.924805	19941.316406
1407.887695	20414.265625
1406.849609	20706.333984
1405.812500	21622.109375
1404.773438	21993.269531
1403.735352	22682.076172
1402.697266	23033.601563
1401.658203	23594.351563
1400.619141	24164.492188
1399.580078	24207.566406
1398.540039	23962.009766
1397.500977	24156.593750
1396.460938	24170.789063
1395.420898	23903.755859
1394.380859	23773.810547
1393.339844	23194.630859
1392.298828	23240.236328
1391.257813	23002.433594
1390.216797	22810.347656
1389.175781	23000.035156
1388.133789	22944.833984
1387.091797	22940.044922
1386.049805	23321.507813
1385.007813	23549.302734
1383.964844	24357.335938
1382.922852	25037.958984
1381.879883	25548.101563
1380.835938	26489.416016
1379.792969	26816.937500
1378.749023	27874.974609
1377.706055	28115.843750
1376.661133	28648.748047
1375.617188	28676.279297
1374.573242	28699.009766
1373.528320	28312.511719
1372.483398	28548.244141
1371.438477	28257.617188
1370.392578	27759.044922
1369.347656	27406.533203
1368.301758	26886.828125
1367.255859	26369.728516
1366.208984	25874.349609
1365.163086	25262.109375
1364.116211	24924.812500
1363.069336	24286.755859
1362.022461	24112.156250
1360.974609	24078.464844
1359.927734	23841.925781
1358.879883	23448.003906
1357.832031	23521.818359
1356.783203	23433.416016
1355.735352	23247.279297
1354.686523	23442.673828
1353.637695	23668.970703
1352.588867	24021.474609
1351.539063	24616.853516
1350.490234	25142.900391
1349.440430	25921.171875
1348.390625	26222.900391
1347.339844	27460.068359
1346.290039	27966.031250
1345.239258	29042.880859
1344.188477	29895.642578
1343.137695	31050.125000
1342.085938	31864.052734
1341.034180	32618.199219
1339.982422	33115.300781
1338.930664	33457.710938
1337.878906	34087.484375
1336.826172	34455.675781
1335.773438	34726.328125
1334.720703	34355.722656
1333.667969	33643.402344
1332.614258	33707.546875
1331.561523	33095.324219
1330.507813	32552.166016
1329.453125	32016.347656
1328.399414	31378.771484
1327.344727	30653.732422
1326.290039	29947.958984
1325.235352	29259.072266
1324.180664	28911.697266
1323.125000	28578.679688
1322.070313	28210.273438
1321.014648	28021.994141
1319.958008	27559.150391
1318.902344	27181.714844
1317.845703	27074.230469
1316.789063	26292.443359
1315.732422	26055.080078
1314.675781	25647.523438
1313.618164	25351.273438
1312.560547	24641.423828
1311.502930	24158.779297
1310.445313	23867.751953
1309.386719	23264.976563
1308.329102	22745.128906
1307.270508	22565.574219
1306.210938	22201.925781
1305.152344	21965.902344
1304.092773	21305.148438
1303.033203	21479.992188
1301.973633	21161.695313
1300.914063	20827.021484
1299.853516	20659.916016
1298.792969	20438.652344
1297.732422	20483.841797
1296.671875	20441.814453
1295.611328	20244.294922
1294.549805	20020.945313
1293.488281	19957.839844
1292.426758	20146.710938
1291.364258	19965.894531
1290.302734	20109.960938
1289.240234	20143.367188
1288.177734	20117.937500
1287.114258	20029.009766
1286.051758	20288.167969
1284.988281	20432.007813
1283.924805	20552.279297
1282.861328	20691.296875
1281.796875	20985.337891
1280.732422	21389.666016
1279.667969	21652.898438
1278.603516	22402.099609
1277.539063	22765.957031
1276.473633	23132.003906
1275.408203	23612.884766
1274.342773	24185.062500
1273.277344	23957.099609
1272.210938	24294.433594
1271.145508	23996.197266
1270.079102	23885.625000
1269.011719	23664.941406
1267.945313	23341.244141
1266.877930	23078.595703
1265.810547	22438.951172
1264.743164	21991.601563
1263.674805	21235.390625
1262.607422	20891.476563
1261.539063	20524.302734
1260.470703	20028.595703
1259.401367	19839.544922
1258.333008	19526.615234
1257.263672	19290.982422
1256.194336	18802.962891
1255.125000	18873.767578
1254.054688	18631.408203
1252.985352	18725.578125
1251.915039	18770.654297
1250.843750	18383.675781
1249.773438	18585.238281
1248.702148	18301.169922
1247.630859	18350.960938
1246.559570	18249.062500
1245.488281	18109.878906
1244.416016	18374.250000
1243.343750	18232.765625
1242.271484	18079.681641
1241.199219	18276.292969
1240.125977	17950.814453
1239.053711	18149.695313
1237.980469	18187.763672
1236.906250	18279.376953
1235.833008	18375.609375
1234.758789	18360.058594
1233.684570	18416.662109
1232.610352	18363.876953
1231.536133	18418.126953
1230.460938	18356.056641
1229.385742	18298.662109
1228.310547	18373.810547
1227.235352	18434.978516
1226.159180	18517.035156
1225.083008	18278.421875
1224.006836	18416.224609
1222.930664	18282.242188
1221.853516	18282.986328
1220.777344	18348.730469
1219.700195	18349.458984
1218.622070	18333.941406
1217.544922	18299.869141
1216.466797	18214.781250
1215.388672	18217.849609
1214.310547	18413.349609
1213.232422	18527.634766
1212.153320	18558.441406
1211.074219	18695.812500
1209.995117	18453.218750
1208.916016	18958.796875
1207.835938	18808.867188
1206.755859	18878.927734
1205.675781	18652.699219
1204.595703	18806.062500
1203.514648	18876.074219
1202.434570	18557.464844
1201.353516	18627.496094
1200.271484	18644.318359
1199.190430	18707.363281
1198.108398	18562.384766
1197.026367	18350.460938
1195.944336	18485.134766
1194.862305	17980.000000
1193.779297	18038.494141
1192.696289	17801.462891
1191.613281	17765.335938
1190.530273	17830.755859
1189.446289	17522.396484
1188.362305	17479.429688
1187.278320	17281.968750
1186.194336	17241.373047
1185.109375	17302.216797
1184.024414	16876.759766
1182.939453	16903.091797
1181.854492	16936.322266
1180.768555	16780.679688
1179.683594	16843.855469
1178.597656	16614.626953
1177.510742	16624.869141
1176.424805	16434.904297
1175.337891	16525.701172
1174.250977	16441.644531
1173.164063	16688.775391
1172.077148	16733.472656
1170.989258	16511.500000
1169.901367	16330.987305
1168.813477	16559.542969
1167.724609	16480.173828
1166.636719	16499.595703
1165.547852	16365.161133
1164.458984	16565.958984
1163.369141	16392.546875
1162.280273	16632.259766
1161.190430	16722.742188
1160.100586	16303.971680
1159.010742	16344.032227
1157.919922	16622.521484
1156.829102	16579.970703
1155.738281	16519.103516
1154.647461	16467.425781
1153.555664	16807.494141
1152.464844	16764.933594
1151.373047	16898.707031
1150.280273	16954.583984
1149.188477	16939.482422
1148.095703	17215.000000
1147.002930	17474.384766
1145.910156	17404.281250
1144.817383	17489.708984
1143.723633	17268.730469
1142.629883	17363.292969
1141.536133	17368.683594
1140.441406	17371.785156
1139.347656	17322.343750
1138.252930	17090.212891
1137.158203	17011.167969
1136.062500	16840.837891
1134.967773	16928.492188
1133.872070	16739.998047
1132.776367	16699.873047
1131.679688	16771.531250
1130.583984	16489.689453
1129.487305	16805.310547
1128.390625	16676.304688
1127.292969	16606.603516
1126.196289	16739.714844
1125.098633	16818.093750
1124.000977	16661.861328
1122.903320	16462.431641
1121.804688	16590.900391
1120.706055	16619.167969
1119.607422	16822.632813
1118.508789	16584.662109
1117.409180	16501.457031
1116.310547	16506.974609
1115.210938	16639.802734
1114.110352	16372.522461
1113.010742	16541.681641
1111.910156	16399.496094
1110.809570	16343.690430
1109.708984	16374.207031
1108.607422	16304.804688
1107.506836	16230.891602
1106.405273	16372.616211
1105.303711	16285.103516
1104.201172	16181.746094
1103.098633	16012.658203
1101.996094	16004.641602
1100.893555	15973.956055
1099.791016	16070.211914
1098.687500	15930.749023
1097.583984	16047.360352
1096.480469	15994.035156
1095.376953	15933.937500
1094.272461	15846.695313
1093.167969	15634.990234
1092.063477	15715.321289
1090.958008	15752.625977
1089.853516	15862.301758
1088.748047	15899.555664
1087.642578	15642.837891
1086.536133	15648.470703
1085.430664	15642.798828
1084.324219	15594.193359
1083.217773	15726.343750
1082.110352	15835.848633
1081.003906	15775.938477
1079.896484	15779.268555
1078.789063	15748.737305
1077.680664	15966.459961
1076.573242	15732.835938
1075.464844	15700.075195
1074.356445	15719.198242
1073.247070	15763.114258
1072.138672	15714.583984
1071.029297	15828.346680
1069.919922	15644.623047
1068.809570	15758.347656
1067.700195	15703.098633
1066.589844	15755.959961
1065.479492	15788.534180
1064.368164	15785.079102
1063.257813	15894.141602
1062.146484	15764.670898
1061.035156	15848.945313
1059.922852	15845.474609
1058.811523	15815.023438
1057.699219	15658.704102
1056.586914	15702.468750
1055.473633	15665.324219
1054.361328	15473.193359
1053.248047	15577.605469
1052.134766	15574.189453
1051.021484	15712.204102
1049.907227	15654.891602
1048.792969	15691.848633
1047.678711	15663.727539
1046.564453	15644.589844
1045.449219	15867.644531
1044.333984	15900.032227
1043.218750	15838.262695
1042.103516	16076.810547
1040.987305	15710.319336
1039.871094	15756.148438
1038.754883	15846.745117
1037.638672	15834.306641
1036.521484	16090.494141
1035.404297	15887.772461
1034.287109	16063.281250
1033.169922	16093.303711
1032.051758	16226.193359
1030.933594	16066.099609
1029.815430	16366.600586
1028.697266	16269.125977
1027.578125	16220.852539
1026.458984	16364.730469
1025.339844	16425.902344
1024.220703	16464.712891
1023.100586	16563.785156
1021.980469	16455.226563
1020.860352	16650.214844
1019.740234	16791.568359
1018.619141	16794.558594
1017.498047	16750.712891
1016.376953	16845.123047
1015.255859	16741.095703
1014.133789	16683.912109
1013.011719	16374.969727
1011.889648	16640.906250
1010.767578	16690.685547
1009.644531	16865.138672
1008.521484	16474.050781
1007.398438	16528.281250
1006.274414	16744.929688
1005.151367	16445.337891
1004.027344	16675.250000
1002.902344	16177.888672
1001.778320	16298.815430
1000.653320	16230.750977
999.528320	16111.601563
998.403320	16094.707031
997.278320	15977.860352
996.152344	16178.639648
995.026367	16243.888672
993.900391	16098.223633
992.773438	16176.775391
991.646484	16117.721680
990.519531	16038.728516
989.392578	16097.275391
988.265625	16000.579102
987.137695	16145.564453
986.009766	16345.894531
984.881836	16191.589844
983.752930	16338.647461
982.624023	16304.015625
981.495117	16278.254883
980.366211	16279.071289
979.236328	16324.155273
978.106445	16243.079102
976.976563	16142.125977
975.846680	16138.541992
974.715820	16050.922852
973.585938	16102.632813
972.454102	16037.162109
971.323242	16126.419922
970.191406	15957.122070
969.060547	16110.416992
967.927734	15852.854492
966.795898	16034.805664
965.663086	16157.070313
964.530273	16307.971680
963.397461	16169.743164
962.264648	16435.287109
961.130859	16702.917969
959.997070	16584.535156
958.863281	16902.716797
957.729492	16909.972656
956.594727	16747.546875
955.459961	16836.347656
954.325195	16700.439453
953.189453	16293.724609
952.053711	16246.060547
950.917969	16233.635742
949.782227	16078.169922
948.646484	15819.363281
947.509766	15908.222656
946.373047	15836.499023
945.235352	15698.844727
944.098633	15761.289063
942.960938	15944.579102
941.823242	15758.649414
940.685547	15948.446289
939.546875	16089.838867
938.408203	16305.823242
937.269531	16139.730469
936.129883	16193.189453
934.991211	16172.017578
933.851563	16427.273438
932.711914	16423.601563
931.571289	16608.513672
930.431641	16482.029297
929.291016	16618.623047
928.149414	16520.677734
927.008789	16611.189453
925.867188	16438.812500
924.725586	16345.348633
923.583984	16295.712891
922.441406	16300.820313
921.299805	16008.299805
920.157227	16116.298828
919.013672	15799.885742
917.871094	15765.729492
916.727539	15453.906250
915.583984	15288.680664
914.439453	15350.819336
913.295898	15100.473633
912.151367	15265.294922
911.006836	14932.085938
909.861328	15275.916992
908.716797	15320.517578
907.571289	15378.191406
906.424805	15256.910156
905.279297	15338.566406
904.132813	15289.321289
902.986328	15209.568359
901.839844	15136.390625
900.692383	14989.136719
899.545898	15003.203125
898.398438	15047.762695
897.250000	15207.741211
896.102539	15385.068359
894.954102	15172.603516
893.805664	15090.832031
892.656250	15178.838867
891.507813	15245.046875
890.358398	15289.472656
889.208984	14885.886719
888.058594	15104.307617
886.908203	15107.430664
885.758789	15004.061523
884.607422	15000.683594
883.457031	14840.903320
882.305664	14804.985352
881.154297	14790.793945
880.002930	14631.165039
878.850586	14964.266602
877.698242	14746.083008
876.545898	14894.612305
875.393555	14758.956055
874.240234	14690.578125
873.086914	14689.433594
871.933594	14716.464844
870.780273	14648.138672
869.625977	14945.962891
868.471680	14648.028320
867.317383	14694.527344
866.162109	14600.283203
865.007813	14798.281250
863.852539	14714.874023
862.696289	14579.580078
861.541016	14533.028320
860.384766	14655.169922
859.228516	14777.254883
858.072266	14557.764648
856.915039	14584.729492
855.757813	14814.770508
854.600586	14496.055664
853.442383	14503.575195
852.285156	14377.229492
851.126953	14594.152344
849.968750	14545.532227
848.809570	14727.794922
847.650391	14664.063477
846.491211	14619.768555
845.332031	14390.065430
844.171875	14692.910156
843.012695	14566.739258
841.851563	14419.078125
840.691406	14342.570313
839.530273	14662.375977
838.369141	14471.725586
837.208008	14616.984375
836.046875	14424.275391
834.884766	14590.994141
833.722656	14318.779297
832.560547	14498.347656
831.397461	14568.169922
830.234375	14584.214844
829.071289	14514.278320
827.908203	14409.991211
826.744141	14595.774414
825.580078	14326.129883
824.416016	14623.508789
823.251953	14654.539063
822.086914	14503.111328
820.921875	14536.298828
819.756836	14447.181641
818.590820	14604.769531
817.425781	14391.296875
816.259766	14463.065430
815.092773	14554.091797
813.926758	14503.638672
812.759766	14429.639648
811.592773	14422.075195
810.424805	14442.353516
809.257813	14342.722656
808.089844	14450.769531
806.920898	14340.479492
805.752930	14472.009766
804.583984	14451.604492
803.415039	14456.870117
802.246094	14421.508789
801.076172	14431.051758
799.906250	14385.024414
798.736328	14272.780273
797.566406	14378.473633
796.395508	14445.675781
795.224609	14485.089844
794.053711	14539.426758
792.881836	14681.240234
791.710938	14767.510742
790.538086	14892.139648
789.366211	14967.657227
788.194336	15060.196289
787.021484	15033.313477
785.848633	14906.270508
784.674805	14700.444336
783.500977	14805.737305
782.327148	14668.179688
781.153320	14447.639648
779.979492	14806.250000
778.804688	14511.282227
777.629883	14642.027344
776.454102	14564.225586
775.279297	14705.531250
774.103516	14351.311523
772.927734	14294.885742
771.750977	14548.801758
770.575195	14475.353516
769.398438	14270.219727
768.220703	14392.275391
767.043945	14573.733398
765.866211	14648.955078
764.688477	14562.826172
763.510742	14758.971680
762.332031	14428.873047
761.153320	14822.218750
759.974609	14933.341797
758.794922	14938.407227
757.616211	15113.039063
756.436523	15219.777344
755.255859	15459.942383
754.076172	15725.414063
752.895508	15793.816406
751.714844	16397.841797
750.533203	16643.863281
749.352539	17332.064453
748.170898	18091.886719
746.988281	19117.882813
745.806641	20335.855469
744.624023	22523.734375
743.441406	25008.660156
742.258789	29155.644531
741.075195	33803.585938
739.891602	39674.566406
738.708008	45409.808594
737.523438	50280.964844
736.339844	53437.925781
735.155273	54810.117188
733.969727	54324.917969
732.785156	51584.917969
731.599609	47612.414063
730.414063	42737.183594
729.227539	37769.324219
728.041992	32390.664063
726.855469	28655.863281
725.667969	25179.773438
724.481445	22549.814453
723.293945	20367.451172
722.106445	18996.554688
720.918945	17984.074219
719.730469	17129.869141
718.541992	16631.572266
717.353516	16259.696289
716.164063	15633.562500
714.975586	15255.776367
713.786133	14844.535156
712.595703	14752.871094
711.406250	14327.226563
710.215820	14491.956055
709.025391	14261.845703
707.833984	14395.023438
706.642578	14269.980469
705.451172	14205.847656
704.259766	14148.036133
703.068359	14165.755859
701.875977	14252.664063
700.683594	13957.982422
699.490234	14193.708008
698.297852	14182.060547
697.104492	14348.490234
695.910156	14320.053711
694.716797	14494.749023
693.522461	14478.851563
692.328125	14563.425781
691.132813	14953.475586
689.938477	15121.583008
688.743164	15266.604492
687.547852	15120.892578
686.351563	15140.406250
685.155273	15178.721680
683.958984	15290.157227
682.762695	14814.476563
681.565430	14687.829102
680.368164	14532.003906
679.170898	14332.406250
677.973633	14506.520508
676.775391	14315.365234
675.577148	14370.482422
674.378906	14400.541992
673.179688	14263.759766
671.980469	14156.227539
670.781250	14044.575195
669.581055	14141.363281
668.381836	14463.115234
667.181641	14474.359375
665.980469	14252.361328
664.780273	14409.385742
663.579102	14555.928711
662.377930	14602.514648
661.175781	14817.600586
659.973633	15228.113281
658.771484	15266.189453
657.569336	15462.258789
656.367188	15535.597656
655.164063	15847.888672
653.960938	15952.267578
652.756836	16187.458984
651.552734	16482.765625
650.348633	16690.732422
649.144531	16728.392578
647.939453	16803.388672
646.735352	16778.759766
645.529297	16783.179688
644.324219	16982.537109
643.118164	17098.867188
641.912109	17084.550781
640.706055	17076.457031
639.499023	17109.804688
638.292969	16967.064453
637.084961	16998.347656
635.877930	16837.062500
634.669922	17050.519531
633.461914	16874.806641
632.253906	16968.150391
631.044922	16844.250000
629.836914	16608.730469
628.626953	16731.011719
627.417969	16381.933594
626.208008	16252.078125
624.998047	16033.437500
623.788086	15883.064453
622.577148	15767.868164
621.366211	15586.653320
620.155273	15172.260742
618.944336	14865.374023
617.732422	14773.211914
616.520508	14249.962891
615.308594	14479.708984
614.095703	14121.716797
612.882813	14229.762695
611.669922	14045.107422
610.457031	13957.378906
609.243164	13812.009766
608.029297	13926.202148
606.815430	13739.725586
605.600586	13713.900391
604.385742	13782.755859
603.170898	13886.557617
601.955078	13844.256836
600.740234	13760.841797
599.524414	13753.541992
598.307617	13801.747070
597.091797	13578.644531
595.875000	13478.926758
594.658203	13716.150391
593.440430	13871.111328
592.222656	13621.502930
591.004883	13538.287109
589.787109	13884.045898
588.568359	13614.086914
587.349609	13820.172852
586.130859	13804.664063
584.912109	13774.808594
583.692383	14050.409180
582.472656	13967.222656
581.251953	14103.317383
580.032227	14229.105469
578.811523	14203.277344
577.589844	14400.647461
576.369141	14554.935547
575.147461	14393.969727
573.925781	14576.832031
572.703125	14587.771484
571.481445	14999.566406
570.258789	14765.032227
569.035156	14919.015625
567.812500	14964.606445
566.588867	15093.951172
565.365234	15292.690430
564.140625	15023.635742
562.916992	15063.030273
561.692383	14916.636719
560.466797	15033.591797
559.242188	14895.432617
558.016602	14708.377930
556.791016	14943.588867
555.564453	14817.778320
554.337891	14698.141602
553.111328	14594.864258
551.884766	14650.568359
550.657227	14341.594727
549.429688	14321.973633
548.202148	14467.292969
546.974609	14297.004883
545.746094	14570.483398
544.517578	14359.552734
543.288086	14297.224609
542.058594	14271.533203
540.829102	14613.895508
539.599609	14494.627930
538.370117	14353.057617
537.139648	14286.735352
535.909180	14409.371094
534.677734	14355.250977
533.446289	14502.178711
532.214844	14196.331055
530.983398	14164.620117
529.750977	14074.079102
528.519531	14068.783203
527.286133	13897.176758
526.053711	13956.809570
524.820313	13961.678711
523.586914	13800.347656
522.353516	14113.248047
521.119141	13743.294922
519.884766	14009.477539
518.650391	14064.947266
517.415039	14011.070313
516.179688	13777.085938
514.944336	13877.084961
513.708984	13892.069336
