#Wave		#Intensity
1585.210938	8719.281250
1584.209961	8759.244141
1583.208984	8732.458008
1582.208008	8700.689453
1581.206055	8751.304688
1580.204102	8654.660156
1579.202148	8787.600586
1578.200195	8648.580078
1577.198242	8759.019531
1576.195313	8767.179688
1575.192383	8583.375000
1574.189453	8855.769531
1573.186523	8572.343750
1572.182617	8652.786133
1571.178711	8601.174805
1570.174805	8816.059570
1569.170898	8602.592773
1568.166992	8745.195313
1567.162109	8713.517578
1566.158203	8803.782227
1565.153320	8508.394531
1564.147461	8588.713867
1563.142578	8412.859375
1562.136719	8714.444336
1561.130859	8655.466797
1560.125000	8564.205078
1559.119141	8679.214844
1558.113281	8674.933594
1557.106445	8566.337891
1556.099609	8768.186523
1555.092773	8748.992188
1554.084961	8628.036133
1553.078125	8809.892578
1552.070313	8713.785156
1551.062500	8692.135742
1550.054688	8873.865234
1549.045898	8819.956055
1548.038086	8557.825195
1547.029297	8704.767578
1546.020508	8698.009766
1545.011719	8688.776367
1544.001953	8543.308594
1542.992188	8539.063477
1541.982422	8648.715820
1540.972656	8609.792969
1539.962891	8707.009766
1538.952148	8522.096680
1537.942383	8695.983398
1536.931641	8511.147461
1535.919922	8593.464844
1534.909180	8641.134766
1533.897461	8416.873047
1532.886719	8496.686523
1531.874023	8423.271484
1530.862305	8495.638672
1529.850586	8476.590820
1528.837891	8464.958008
1527.825195	8468.143555
1526.812500	8594.743164
1525.799805	8457.233398
1524.786133	8591.184570
1523.772461	8631.341797
1522.758789	8429.784180
1521.745117	8462.559570
1520.731445	8552.022461
1519.716797	8631.588867
1518.702148	8440.053711
1517.687500	8477.726563
1516.672852	8567.110352
1515.657227	8575.186523
1514.642578	8620.192383
1513.626953	8618.407227
1512.610352	8488.640625
1511.594727	8646.827148
1510.579102	8600.752930
1509.562500	8468.609375
1508.545898	8417.672852
1507.529297	8415.928711
1506.511719	8514.969727
1505.494141	8609.052734
1504.477539	8636.754883
1503.458984	8637.421875
1502.441406	8505.459961
1501.423828	8388.285156
1500.405273	8543.672852
1499.386719	8622.903320
1498.368164	8670.198242
1497.348633	8582.527344
1496.330078	8750.008789
1495.310547	8417.103516
1494.291016	8677.726563
1493.271484	8715.152344
1492.250977	8571.188477
1491.231445	8608.620117
1490.210938	8633.786133
1489.190430	8683.435547
1488.168945	8720.819336
1487.148438	8719.012695
1486.126953	8722.100586
1485.105469	8651.764648
1484.083984	8755.189453
1483.061523	8667.749023
1482.040039	8741.776367
1481.017578	8766.864258
1479.995117	8948.415039
1478.971680	8885.449219
1477.949219	8851.836914
1476.925781	9011.265625
1475.902344	9053.369141
1474.878906	9195.592773
1473.855469	9237.639648
1472.831055	9277.226563
1471.806641	9275.302734
1470.782227	9451.525391
1469.757813	9561.797852
1468.733398	9601.284180
1467.708008	9823.666016
1466.682617	9787.491211
1465.657227	9783.022461
1464.631836	10112.468750
1463.605469	10427.157227
1462.579102	10256.887695
1461.552734	10520.262695
1460.526367	10729.951172
1459.500000	10710.680664
1458.472656	10908.069336
1457.445313	10842.526367
1456.417969	11066.571289
1455.390625	10932.904297
1454.362305	10682.542969
1453.334961	10721.665039
1452.306641	10466.586914
1451.277344	10265.091797
1450.249023	10296.983398
1449.219727	10042.151367
1448.191406	10023.060547
1447.162109	10033.123047
1446.131836	9802.785156
1445.102539	9679.362305
1444.072266	9553.562500
1443.041992	9643.792969
1442.011719	9600.543945
1440.981445	9525.777344
1439.950195	9414.664063
1438.918945	9536.367188
1437.887695	9483.476563
1436.856445	9377.287109
1435.825195	9314.757813
1434.792969	9383.079102
1433.760742	9213.998047
1432.728516	9260.515625
1431.696289	9101.213867
1430.663086	9145.314453
1429.629883	9078.067383
1428.596680	8914.061523
1427.563477	8975.106445
1426.530273	8912.772461
1425.496094	8884.318359
1424.461914	8913.900391
1423.427734	8771.850586
1422.393555	8726.525391
1421.358398	8710.212891
1420.323242	8855.754883
1419.288086	8769.381836
1418.252930	8849.654297
1417.217773	8654.680664
1416.181641	8768.733398
1415.145508	8947.892578
1414.109375	8878.476563
1413.073242	9028.591797
1412.036133	8809.665039
1411.000000	8969.375000
1409.962891	8945.811523
1408.924805	9201.831055
1407.887695	9127.625000
1406.849609	9101.632813
1405.812500	9420.081055
1404.773438	9646.888672
1403.735352	9478.753906
1402.697266	9804.144531
1401.658203	9886.332031
1400.619141	10004.576172
1399.580078	9944.755859
1398.540039	9959.518555
1397.500977	9969.464844
1396.460938	9770.250000
1395.420898	10025.396484
1394.380859	9941.600586
1393.339844	9696.864258
1392.298828	9718.862305
1391.257813	9805.693359
1390.216797	9796.444336
1389.175781	9640.761719
1388.133789	9799.555664
1387.091797	9751.917969
1386.049805	9723.493164
1385.007813	9843.791016
1383.964844	9985.620117
1382.922852	10333.582031
1381.879883	10372.174805
1380.835938	10449.095703
1379.792969	10734.442383
1378.749023	10998.109375
1377.706055	11072.454102
1376.661133	11077.325195
1375.617188	11230.625000
1374.573242	10969.771484
1373.528320	11044.057617
1372.483398	11044.141602
1371.438477	11072.929688
1370.392578	11139.969727
1369.347656	10848.320313
1368.301758	10630.899414
1367.255859	10764.910156
1366.208984	10566.712891
1365.163086	10359.041992
1364.116211	10225.502930
1363.069336	10173.213867
1362.022461	10099.457031
1360.974609	10195.213867
1359.927734	9751.562500
1358.879883	9952.337891
1357.832031	9981.266602
1356.783203	10134.207031
1355.735352	10005.702148
1354.686523	10149.035156
1353.637695	10142.142578
1352.588867	10197.211914
1351.539063	10187.927734
1350.490234	10395.416016
1349.440430	10626.632813
1348.390625	10936.328125
1347.339844	11322.071289
1346.290039	11203.073242
1345.239258	11510.070313
1344.188477	11726.533203
1343.137695	12004.748047
1342.085938	12328.028320
1341.034180	12422.923828
1339.982422	12741.225586
1338.930664	12866.887695
1337.878906	13044.771484
1336.826172	13027.779297
1335.773438	13179.426758
1334.720703	13342.881836
1333.667969	13124.037109
1332.614258	13061.941406
1331.561523	13021.228516
1330.507813	12783.605469
1329.453125	12643.337891
1328.399414	12614.593750
1327.344727	12422.253906
1326.290039	12275.036133
1325.235352	12175.281250
1324.180664	11705.908203
1323.125000	11613.420898
1322.070313	11665.457031
1321.014648	11601.432617
1319.958008	11430.891602
1318.902344	11229.648438
1317.845703	11123.154297
1316.789063	11203.628906
1315.732422	10600.400391
1314.675781	10785.014648
1313.618164	10737.817383
1312.560547	10633.898438
1311.502930	10532.386719
1310.445313	10570.342773
1309.386719	10350.752930
1308.329102	10320.226563
1307.270508	10204.693359
1306.210938	10079.763672
1305.152344	9803.803711
1304.092773	9782.856445
1303.033203	9740.679688
1301.973633	9974.542969
1300.914063	9781.387695
1299.853516	9644.910156
1298.792969	9737.182617
1297.732422	9492.339844
1296.671875	9551.611328
1295.611328	9526.034180
1294.549805	9432.152344
1293.488281	9291.206055
1292.426758	9341.047852
1291.364258	9134.261719
1290.302734	9151.162109
1289.240234	9233.945313
1288.177734	9107.301758
1287.114258	8985.416016
1286.051758	8978.814453
1284.988281	9174.418945
1283.924805	9012.630859
1282.861328	8966.072266
1281.796875	8971.226563
1280.732422	9180.759766
1279.667969	9096.613281
1278.603516	9244.975586
1277.539063	9304.061523
1276.473633	9318.524414
1275.408203	9445.623047
1274.342773	9485.856445
1273.277344	9549.530273
1272.210938	9502.949219
1271.145508	9505.626953
1270.079102	9658.334961
1269.011719	9389.101563
1267.945313	9553.484375
1266.877930	9439.007813
1265.810547	9296.471680
1264.743164	9224.249023
1263.674805	9126.301758
1262.607422	8997.964844
1261.539063	8963.292969
1260.470703	8916.936523
1259.401367	8805.099609
1258.333008	8892.106445
1257.263672	8815.394531
1256.194336	8815.861328
1255.125000	8638.693359
1254.054688	8653.217773
1252.985352	8630.353516
1251.915039	8665.894531
1250.843750	8491.241211
1249.773438	8554.812500
1248.702148	8492.302734
1247.630859	8616.526367
1246.559570	8619.362305
1245.488281	8738.838867
1244.416016	8587.710938
1243.343750	8760.775391
1242.271484	8532.770508
1241.199219	8428.398438
1240.125977	8403.302734
1239.053711	8534.317383
1237.980469	8490.573242
1236.906250	8579.593750
1235.833008	8570.782227
1234.758789	8571.286133
1233.684570	8609.027344
1232.610352	8576.944336
1231.536133	8505.326172
1230.460938	8517.470703
1229.385742	8417.989258
1228.310547	8576.614258
1227.235352	8446.944336
1226.159180	8377.750000
1225.083008	8522.340820
1224.006836	8474.065430
1222.930664	8502.450195
1221.853516	8435.622070
1220.777344	8582.395508
1219.700195	8501.652344
1218.622070	8460.390625
1217.544922	8451.625977
1216.466797	8387.196289
1215.388672	8517.586914
1214.310547	8497.220703
1213.232422	8576.536133
1212.153320	8440.290039
1211.074219	8389.830078
1209.995117	8587.256836
1208.916016	8687.325195
1207.835938	8747.987305
1206.755859	8503.041016
1205.675781	8422.530273
1204.595703	8534.116211
1203.514648	8479.080078
1202.434570	8431.005859
1201.353516	8507.828125
1200.271484	8323.356445
1199.190430	8534.237305
1198.108398	8486.189453
1197.026367	8433.541016
1195.944336	8272.340820
1194.862305	8372.190430
1193.779297	8485.850586
1192.696289	8308.580078
1191.613281	8256.022461
1190.530273	8180.410156
1189.446289	8252.484375
1188.362305	8333.752930
1187.278320	8244.333984
1186.194336	8113.451172
1185.109375	8155.508301
1184.024414	8156.063477
1182.939453	8186.571289
1181.854492	7991.309082
1180.768555	8003.412598
1179.683594	7953.338867
1178.597656	8131.199219
1177.510742	7952.225586
1176.424805	7987.335938
1175.337891	8077.646973
1174.250977	7940.201172
1173.164063	7901.699707
1172.077148	7849.419434
1170.989258	7978.757324
1169.901367	7937.972168
1168.813477	7860.440918
1167.724609	7801.320313
1166.636719	7808.828613
1165.547852	7843.888184
1164.458984	7630.993164
1163.369141	7854.283691
1162.280273	8049.939941
1161.190430	7915.140625
1160.100586	7915.729980
1159.010742	7955.303711
1157.919922	7919.198242
1156.829102	7871.646484
1155.738281	7798.905273
1154.647461	7998.856934
1153.555664	7903.209961
1152.464844	7967.924316
1151.373047	8089.854980
1150.280273	7916.412109
1149.188477	7987.946289
1148.095703	7926.726563
1147.002930	7785.458496
1145.910156	8012.510742
1144.817383	8035.936035
1143.723633	8066.209473
1142.629883	7989.034668
1141.536133	8074.152344
1140.441406	8163.802246
1139.347656	8104.929199
1138.252930	7922.751465
1137.158203	8163.077148
1136.062500	8069.996582
1134.967773	8120.746582
1133.872070	8050.533203
1132.776367	7948.409668
1131.679688	8083.544922
1130.583984	8211.779297
1129.487305	8228.241211
1128.390625	8057.782227
1127.292969	8119.847656
1126.196289	8154.544434
1125.098633	8086.717285
1124.000977	8148.734375
1122.903320	8160.630371
1121.804688	8174.797363
1120.706055	8091.090332
1119.607422	8000.592285
1118.508789	7976.107422
1117.409180	8024.416504
1116.310547	8111.361816
1115.210938	7991.379883
1114.110352	7871.448730
1113.010742	7797.020020
1111.910156	7977.089355
1110.809570	7909.482910
1109.708984	8034.943848
1108.607422	7826.578613
1107.506836	8040.533691
1106.405273	7968.430664
1105.303711	8041.578125
1104.201172	7842.464355
1103.098633	7725.086914
1101.996094	7841.321777
1100.893555	7828.281250
1099.791016	7631.650391
1098.687500	7867.931641
1097.583984	7766.532715
1096.480469	7991.354980
1095.376953	7815.238770
1094.272461	7756.933594
1093.167969	7827.681152
1092.063477	7812.397461
1090.958008	7885.363281
1089.853516	7752.439941
1088.748047	7764.320313
1087.642578	7787.500977
1086.536133	7937.269531
1085.430664	7671.096191
1084.324219	7617.450195
1083.217773	7834.932129
1082.110352	7788.048340
1081.003906	7630.531738
1079.896484	7617.578125
1078.789063	7807.780273
1077.680664	7774.481445
1076.573242	7795.346191
1075.464844	7854.549316
1074.356445	7886.662109
1073.247070	7803.767578
1072.138672	7896.741699
1071.029297	7732.743164
1069.919922	7800.905273
1068.809570	7729.362793
1067.700195	7745.690918
1066.589844	7800.291992
1065.479492	7857.120117
1064.368164	7907.169922
1063.257813	8033.708984
1062.146484	7962.205078
1061.035156	7861.490723
1059.922852	7828.285156
1058.811523	7831.067383
1057.699219	7829.352051
1056.586914	7895.058105
1055.473633	7877.600098
1054.361328	7736.596680
1053.248047	7831.474609
1052.134766	7800.567383
1051.021484	7756.203125
1049.907227	7891.412109
1048.792969	7687.727051
1047.678711	7654.631836
1046.564453	7919.863281
1045.449219	7830.668945
1044.333984	7815.498047
1043.218750	7894.475098
1042.103516	7939.802246
1040.987305	7848.438477
1039.871094	7801.914063
1038.754883	7757.648926
1037.638672	7897.001953
1036.521484	7897.504883
1035.404297	7949.480957
1034.287109	7833.618652
1033.169922	7932.562500
1032.051758	7912.925293
1030.933594	7712.174805
1029.815430	7958.625977
1028.697266	8012.750977
1027.578125	7986.406738
1026.458984	7964.541504
1025.339844	7848.873535
1024.220703	8117.351074
1023.100586	8017.327637
1021.980469	8109.310547
1020.860352	8085.207031
1019.740234	8029.877441
1018.619141	8041.490723
1017.498047	8088.781250
1016.376953	8084.767578
1015.255859	8107.504883
1014.133789	8049.999023
1013.011719	7972.464355
1011.889648	7814.765625
1010.767578	7886.538574
1009.644531	8114.148926
1008.521484	7820.721680
1007.398438	7903.572266
1006.274414	7841.744629
1005.151367	8013.542480
1004.027344	7920.577148
1002.902344	7998.881836
1001.778320	8101.607422
1000.653320	7990.899414
999.528320	8024.688965
998.403320	7831.839355
997.278320	7763.467285
996.152344	7788.399414
995.026367	7742.269043
993.900391	7789.391602
992.773438	7670.041992
991.646484	7885.791016
990.519531	7684.392090
989.392578	7760.314941
988.265625	7714.248047
987.137695	7665.984375
986.009766	7755.157227
984.881836	7717.983887
983.752930	7669.749023
982.624023	7694.626953
981.495117	7754.924316
980.366211	7649.148926
979.236328	7693.934082
978.106445	7703.291504
976.976563	7725.918945
975.846680	7653.420410
974.715820	7707.008301
973.585938	7729.617188
972.454102	7741.163574
971.323242	7589.163086
970.191406	7613.991211
969.060547	7802.274902
967.927734	7760.787109
966.795898	7719.316895
965.663086	7858.883789
964.530273	7777.682129
963.397461	7864.214844
962.264648	8063.218262
961.130859	8154.058594
959.997070	8094.911621
958.863281	8267.273438
957.729492	8199.309570
956.594727	8204.094727
955.459961	8100.922852
954.325195	7975.770508
953.189453	7958.578613
952.053711	7870.940430
950.917969	7893.398926
949.782227	7937.853516
948.646484	7819.473633
947.509766	7960.710449
946.373047	7743.412598
945.235352	7616.358398
944.098633	7601.469727
942.960938	7815.151367
941.823242	7622.247070
940.685547	7668.874023
939.546875	7796.741211
938.408203	7667.645508
937.269531	7703.252930
936.129883	7501.805664
934.991211	7816.109375
933.851563	7614.725586
932.711914	7641.537109
931.571289	7582.814941
930.431641	7706.083008
929.291016	7835.871094
928.149414	7827.544434
927.008789	7836.748047
925.867188	7850.327148
924.725586	7607.682129
923.583984	7789.889160
922.441406	7779.390137
921.299805	7740.444824
920.157227	7627.127441
919.013672	7686.667480
917.871094	7689.319336
916.727539	7735.698730
915.583984	7515.368164
914.439453	7542.095215
913.295898	7509.814453
912.151367	7449.149414
911.006836	7574.151855
909.861328	7504.763672
908.716797	7527.093750
907.571289	7516.674805
906.424805	7534.626465
905.279297	7563.477539
904.132813	7459.269531
902.986328	7488.123047
901.839844	7558.384766
900.692383	7303.853027
899.545898	7611.646973
898.398438	7605.579590
897.250000	7569.020508
896.102539	7608.694824
894.954102	7537.315430
893.805664	7659.691406
892.656250	7634.030762
891.507813	7693.233398
890.358398	7606.670410
889.208984	7694.122559
888.058594	7892.419434
886.908203	7560.236328
885.758789	7493.337402
884.607422	7480.787109
883.457031	7492.136230
882.305664	7581.663574
881.154297	7480.077148
880.002930	7461.025879
878.850586	7411.598145
877.698242	7574.834473
876.545898	7286.775879
875.393555	7315.497070
874.240234	7435.275879
873.086914	7502.970703
871.933594	7356.064941
870.780273	7330.569824
869.625977	7419.904785
868.471680	7234.128906
867.317383	7559.474609
866.162109	7404.058594
865.007813	7521.431152
863.852539	7480.782227
862.696289	7338.467773
861.541016	7531.478516
860.384766	7395.703125
859.228516	7543.209961
858.072266	7424.784180
856.915039	7587.344238
855.757813	7479.763184
854.600586	7415.431152
853.442383	7353.287109
852.285156	7543.781250
851.126953	7518.330566
849.968750	7475.626465
848.809570	7547.293457
847.650391	7446.358887
846.491211	7433.890625
845.332031	7238.155762
844.171875	7264.540527
843.012695	7476.256836
841.851563	7340.974121
840.691406	7401.782715
839.530273	7378.569336
838.369141	7202.487793
837.208008	7289.117676
836.046875	7246.573242
834.884766	7436.436035
833.722656	7402.481445
832.560547	7390.049316
831.397461	7304.512695
830.234375	7378.099121
829.071289	7185.137207
827.908203	7376.900879
826.744141	7259.217285
825.580078	7117.959961
824.416016	7264.512207
823.251953	7187.722656
822.086914	7304.142090
820.921875	7409.778320
819.756836	7180.682617
818.590820	7335.630859
817.425781	7378.997559
816.259766	7265.835938
815.092773	7184.876953
813.926758	7183.244141
812.759766	7188.039063
811.592773	7124.287109
810.424805	7238.308594
809.257813	7221.675781
808.089844	7269.265625
806.920898	7252.631836
805.752930	7394.332520
804.583984	7200.133301
803.415039	7266.929688
802.246094	7246.033203
801.076172	7244.383789
799.906250	7172.209473
798.736328	7164.166504
797.566406	7245.845215
796.395508	7167.310547
795.224609	7144.326172
794.053711	7294.262207
792.881836	7247.781738
791.710938	7412.560547
790.538086	7244.478516
789.366211	7381.456543
788.194336	7377.641113
787.021484	7371.695801
785.848633	7246.399414
784.674805	7334.240723
783.500977	7364.522949
782.327148	7241.441895
781.153320	7275.988770
779.979492	7155.112305
778.804688	7200.303711
777.629883	7149.718750
776.454102	7216.163574
775.279297	7176.231445
774.103516	7287.293457
772.927734	7211.221191
771.750977	7194.695801
770.575195	7248.301758
769.398438	7155.292480
768.220703	7219.501953
767.043945	7219.975586
765.866211	7292.631836
764.688477	7271.861816
763.510742	7225.635742
762.332031	7213.375977
761.153320	7211.726563
759.974609	7106.166992
758.794922	7286.872559
757.616211	7230.095215
756.436523	7325.921875
755.255859	7457.722168
754.076172	7542.860840
752.895508	7587.724121
751.714844	7636.800293
750.533203	7791.689941
749.352539	7944.392090
748.170898	7993.351074
746.988281	8378.616211
745.806641	8558.569336
744.624023	8975.242188
743.441406	9324.081055
742.258789	9932.700195
741.075195	10792.468750
739.891602	12000.384766
738.708008	13387.255859
737.523438	15126.094727
736.339844	16207.639648
735.155273	17767.755859
733.969727	18770.128906
732.785156	18995.755859
731.599609	18618.107422
730.414063	17559.585938
729.227539	16706.027344
728.041992	14948.726563
726.855469	13813.811523
725.667969	12274.955078
724.481445	11513.948242
723.293945	10452.188477
722.106445	10072.973633
720.918945	9521.351563
719.730469	8993.127930
718.541992	8555.604492
717.353516	8339.114258
716.164063	8208.934570
714.975586	7935.862793
713.786133	7789.019531
712.595703	7730.496094
711.406250	7476.627441
710.215820	7401.398926
709.025391	7259.010742
707.833984	7366.506836
706.642578	7209.499023
705.451172	7233.021484
704.259766	7208.281738
703.068359	7164.675781
701.875977	7037.213379
700.683594	7176.055176
699.490234	7155.540527
698.297852	7258.666992
697.104492	7112.443359
695.910156	7121.278809
694.716797	7092.417480
693.522461	7172.432617
692.328125	7313.108887
691.132813	7236.092773
689.938477	7374.596191
688.743164	7220.210938
687.547852	7264.552734
686.351563	7413.405273
685.155273	7277.927734
683.958984	7288.789063
682.762695	7048.941406
681.565430	7220.680664
680.368164	7087.458008
679.170898	7231.967285
677.973633	7090.453125
676.775391	7155.596191
675.577148	7272.865723
674.378906	7068.864258
673.179688	7206.952148
671.980469	7167.762695
670.781250	7145.266113
669.581055	7310.330078
668.381836	7323.228027
667.181641	7298.626465
665.980469	7226.138672
664.780273	7305.668945
663.579102	7322.716797
662.377930	7433.401855
661.175781	7379.672852
659.973633	7531.894043
658.771484	7505.200684
657.569336	7632.372070
656.367188	7524.600586
655.164063	7610.145020
653.960938	7764.212402
652.756836	7822.657715
651.552734	7733.629883
650.348633	7684.090332
649.144531	7931.404785
647.939453	7900.518555
646.735352	7815.702148
645.529297	7859.531250
644.324219	7878.453613
643.118164	7824.799316
641.912109	7711.056641
640.706055	7916.513184
639.499023	7945.761719
638.292969	7838.282715
637.084961	7946.230957
635.877930	7851.222656
634.669922	8017.076660
633.461914	8048.335449
632.253906	8071.302734
631.044922	8059.093262
629.836914	8042.752930
628.626953	8142.205566
627.417969	7921.207520
626.208008	8080.573242
624.998047	8000.189453
623.788086	7988.010254
622.577148	7944.857910
621.366211	7680.798828
620.155273	7761.591797
618.944336	7633.905273
617.732422	7514.530762
616.520508	7510.728516
615.308594	7478.055176
614.095703	7327.869629
612.882813	7398.321777
611.669922	7281.198242
610.457031	7085.831543
609.243164	7148.049805
608.029297	7187.584473
606.815430	7072.674805
605.600586	7036.041992
604.385742	7094.096191
603.170898	7053.358887
601.955078	6942.699219
600.740234	6992.506836
599.524414	7029.953613
598.307617	6804.257324
597.091797	6866.392090
595.875000	6955.208496
594.658203	6828.288574
593.440430	6937.609375
592.222656	6874.403320
591.004883	7063.721680
589.787109	6936.892090
588.568359	6945.543945
587.349609	6843.416504
586.130859	6983.342773
584.912109	6891.504883
583.692383	6838.658691
582.472656	6880.112305
581.251953	6972.771973
580.032227	6944.524414
578.811523	6854.847656
577.589844	6937.209473
576.369141	7009.296387
575.147461	7042.463867
573.925781	6871.000000
572.703125	7118.979980
571.481445	7029.384766
570.258789	7076.828125
569.035156	7152.868652
567.812500	7138.947266
566.588867	7167.940918
565.365234	7241.863281
564.140625	7211.590332
562.916992	7162.954102
561.692383	7114.339355
560.466797	7414.748535
559.242188	7208.981445
558.016602	7284.828613
556.791016	7211.755371
555.564453	7104.051270
554.337891	7077.939941
553.111328	7406.470703
551.884766	7084.843750
550.657227	7170.797363
549.429688	6945.098145
548.202148	7136.926270
546.974609	7131.198730
545.746094	7186.531250
544.517578	7095.332031
543.288086	7177.092773
542.058594	7205.934570
540.829102	7173.761230
539.599609	7332.695801
538.370117	7257.826172
537.139648	7459.337891
535.909180	7260.551758
534.677734	7431.502930
533.446289	7169.867188
532.214844	7212.864746
530.983398	7241.634277
529.750977	7022.835449
528.519531	7136.838867
527.286133	7153.436035
526.053711	6993.612793
524.820313	7069.024414
523.586914	6980.231934
522.353516	7086.005371
521.119141	7102.592773
519.884766	6955.117188
518.650391	7079.045898
517.415039	7071.329102
516.179688	6932.058105
514.944336	6979.012207
513.708984	7042.128418
