#Wave		#Intensity
2109.224609	12302.209961
2107.712891	12523.841797
2106.201172	12398.765625
2104.687500	12427.497070
2103.175781	12234.727539
2101.662109	12331.236328
2100.150391	12368.224609
2098.636719	12311.042969
2097.123047	12253.886719
2095.607422	12163.732422
2094.093750	12237.041992
2092.578125	12241.002930
2091.064453	12167.411133
2089.548828	12093.850586
2088.033203	12023.620117
2086.517578	12169.436523
2085.000000	12142.084961
2083.484375	11984.532227
2081.966797	11810.568359
2080.449219	12015.616211
2078.931641	11840.074219
2077.414063	11934.689453
2075.894531	11856.382813
2074.376953	11814.324219
2072.857422	11931.925781
2071.337891	11827.342773
2069.818359	11941.600586
2068.298828	11804.166992
2066.777344	11939.756836
2065.257813	11751.418945
2063.736328	11952.708008
2062.214844	11902.485352
2060.693359	11968.934570
2059.171875	11928.584961
2057.648438	11886.611328
2056.126953	11805.250000
2054.603516	11794.509766
2053.080078	11770.644531
2051.556641	11810.783203
2050.033203	11708.180664
2048.507813	11833.602539
2046.984375	11824.507813
2045.458984	11759.675781
2043.933594	11848.945313
2042.408203	11771.026367
2040.882813	11927.428711
2039.355469	11874.096680
2037.830078	11881.381836
2036.302734	11860.828125
2034.775391	11745.338867
2033.248047	11682.271484
2031.718750	11565.233398
2030.191406	11698.542969
2028.662109	11792.541016
2027.134766	11945.368164
2025.605469	11744.994141
2024.076172	11731.042969
2022.544922	11695.853516
2021.015625	11779.948242
2019.484375	11738.229492
2017.955078	11830.445313
2016.423828	11716.889648
2014.892578	11637.665039
2013.359375	11782.069336
2011.828125	11665.333984
2010.294922	11672.633789
2008.761719	11727.230469
2007.230469	11713.314453
2005.695313	11670.058594
2004.162109	11747.440430
2002.628906	11585.230469
2001.093750	11747.322266
1999.558594	11638.936523
1998.023438	11770.002930
1996.488281	11671.427734
1994.953125	11568.010742
1993.417969	11638.789063
1991.880859	11759.979492
1990.343750	11812.790039
1988.806641	11751.720703
1987.269531	11737.836914
1985.732422	11683.311523
1984.193359	11776.730469
1982.656250	11762.849609
1981.117188	11714.852539
1979.578125	11791.959961
1978.039063	11763.466797
1976.500000	11747.975586
1974.958984	11751.971680
1973.417969	12022.151367
1971.878906	11738.863281
1970.337891	11799.642578
1968.796875	11797.135742
1967.253906	11760.573242
1965.712891	11853.735352
1964.169922	11755.578125
1962.626953	11735.254883
1961.083984	11854.287109
1959.541016	11671.952148
1957.998047	11667.855469
1956.455078	11683.191406
1954.910156	11687.187500
1953.365234	11678.232422
1951.820313	11659.572266
1950.275391	11793.003906
1948.730469	11729.034180
1947.183594	11854.307617
1945.638672	11698.189453
1944.091797	11852.513672
1942.544922	11612.417969
1940.998047	11723.066406
1939.449219	11840.129883
1937.902344	11747.169922
1936.353516	11760.828125
1934.804688	11687.298828
1933.255859	11679.979492
1931.707031	11658.138672
1930.158203	11658.895508
1928.607422	11719.337891
1927.058594	11760.400391
1925.507813	11709.536133
1923.957031	11718.340820
1922.406250	11596.588867
1920.853516	11679.538086
1919.302734	11776.952148
1917.750000	11689.089844
1916.197266	11601.264648
1914.644531	11573.047852
1913.091797	11663.960938
1911.539063	11600.336914
1909.984375	11604.317383
1908.431641	11769.165039
1906.876953	11745.766602
1905.322266	11653.233398
1903.767578	11647.551758
1902.210938	11648.302734
1900.656250	11571.916992
1899.099609	11543.762695
1897.542969	11745.322266
1895.986328	11599.907227
1894.429688	11676.129883
1892.873047	11729.845703
1891.314453	11724.155273
1889.755859	11492.216797
1888.199219	11600.481445
1886.640625	11657.375000
1885.080078	11656.513672
1883.521484	11665.272461
1881.960938	11558.617188
1880.402344	11594.635742
1878.841797	11625.832031
1877.281250	11552.890625
1875.720703	11611.308594
1874.158203	11445.530273
1872.597656	11585.589844
1871.035156	11725.589844
1869.472656	11675.106445
1867.910156	11675.838867
1866.347656	11599.793945
1864.783203	11630.925781
1863.220703	11756.376953
1861.656250	11544.487305
1860.091797	11505.290039
1858.527344	11792.069336
1856.962891	11522.794922
1855.396484	11716.812500
1853.832031	11733.499023
1852.265625	11563.389648
1850.699219	11766.850586
1849.132813	11667.020508
1847.566406	11851.227539
1845.998047	11601.477539
1844.431641	11729.800781
1842.863281	11794.291016
1841.294922	11713.688477
1839.726563	11615.586914
1838.156250	11780.446289
1836.587891	11905.408203
1835.017578	11769.100586
1833.449219	11760.245117
1831.878906	11600.142578
1830.306641	11744.136719
1828.736328	11867.379883
1827.166016	11946.020508
1825.593750	11900.546875
1824.021484	11773.980469
1822.449219	11906.652344
1820.876953	11948.651367
1819.304688	11822.153320
1817.730469	11899.111328
1816.158203	11877.534180
1814.583984	12076.754883
1813.009766	11948.746094
1811.435547	11971.626953
1809.859375	11984.973633
1808.285156	11891.978516
1806.708984	11708.579102
1805.132813	11934.548828
1803.556641	11974.852539
1801.980469	11942.195313
1800.404297	12004.674805
1798.826172	12046.521484
1797.248047	11850.639648
1795.671875	11965.382813
1794.093750	11913.750000
1792.513672	11960.329102
1790.935547	12046.473633
1789.355469	11906.203125
1787.777344	11903.688477
1786.197266	12076.820313
1784.617188	12175.520508
1783.035156	11937.272461
1781.455078	12091.308594
1779.873047	12042.903320
1778.292969	12070.393555
1776.710938	12003.047852
1775.128906	12107.956055
1773.544922	12083.282227
1771.962891	12085.466797
1770.378906	12062.386719
1768.794922	12310.854492
1767.212891	12232.490234
1765.626953	12323.010742
1764.042969	12228.899414
1762.458984	12354.083984
1760.873047	12337.279297
1759.287109	12320.481445
1757.701172	12138.169922
1756.115234	12476.032227
1754.529297	12309.520508
1752.941406	12467.608398
1751.355469	12266.515625
1749.767578	12333.210938
1748.179688	12612.418945
1746.591797	12403.551758
1745.001953	12476.467773
1743.414063	12436.068359
1741.824219	12372.089844
1740.234375	12628.973633
1738.644531	12764.672852
1737.054688	12678.654297
1735.462891	12759.274414
1733.873047	12731.433594
1732.281250	12823.004883
1730.689453	13052.759766
1729.097656	12976.190430
1727.505859	13092.770508
1725.912109	13135.522461
1724.320313	12983.650391
1722.726563	13407.689453
1721.132813	13370.339844
1719.539063	13626.297852
1717.945313	13524.625000
1716.349609	13786.710938
1714.755859	13589.433594
1713.160156	13669.612305
1711.564453	13851.594727
1709.968750	13917.583984
1708.371094	14017.999023
1706.775391	13968.057617
1705.177734	14055.894531
1703.580078	14092.044922
1701.982422	14073.413086
1700.384766	14148.653320
1698.787109	14358.373047
1697.187500	14327.182617
1695.587891	14457.039063
1693.990234	14416.461914
1692.390625	14446.224609
1690.789063	14674.404297
1689.189453	14904.047852
1687.587891	14675.993164
1685.988281	14899.291992
1684.386719	14891.450195
1682.785156	14964.770508
1681.181641	15314.259766
1679.580078	15534.109375
1677.976563	15611.923828
1676.373047	15621.088867
1674.769531	16071.480469
1673.166016	16283.185547
1671.562500	16421.550781
1669.957031	16474.160156
1668.353516	16934.890625
1666.748047	17267.710938
1665.142578	17673.574219
1663.537109	17805.265625
1661.929688	17933.787109
1660.324219	18183.630859
1658.716797	18567.169922
1657.109375	19004.986328
1655.501953	19158.021484
1653.894531	19312.544922
1652.285156	19953.560547
1650.677734	20401.585938
1649.068359	20602.357422
1647.458984	21214.722656
1645.849609	21345.341797
1644.240234	21788.025391
1642.628906	22356.273438
1641.019531	22751.984375
1639.408203	23093.212891
1637.796875	23338.097656
1636.185547	23877.605469
1634.572266	23725.195313
1632.960938	24196.164063
1631.347656	24403.394531
1629.734375	24559.390625
1628.121094	24871.822266
1626.507813	25273.972656
1624.894531	25734.810547
1623.279297	25991.039063
1621.664063	26448.425781
1620.048828	27167.212891
1618.433594	27449.275391
1616.818359	27666.232422
1615.203125	28192.476563
1613.585938	28882.433594
1611.968750	29408.191406
1610.351563	29514.777344
1608.734375	29992.257813
1607.117188	30633.330078
1605.498047	30867.810547
1603.878906	31267.460938
1602.261719	31639.142578
1600.640625	32166.599609
1599.021484	32468.462891
1597.402344	32459.994141
1595.781250	32561.076172
1594.162109	32768.554688
1592.541016	32818.625000
1590.919922	33018.246094
1589.296875	32883.242188
1587.675781	32640.398438
1586.052734	32749.001953
1584.429688	32668.056641
1582.806641	32969.144531
1581.183594	32486.244141
1579.560547	32525.492188
1577.935547	32809.476563
1576.312500	32523.904297
1574.687500	32727.751953
1573.062500	32669.990234
1571.435547	33087.500000
1569.810547	33229.578125
1568.183594	33639.097656
1566.558594	33542.753906
1564.931641	33397.273438
1563.304688	33741.960938
1561.675781	34186.335938
1560.048828	33750.554688
1558.419922	33777.105469
1556.791016	33952.546875
1555.162109	34201.578125
1553.533203	34369.175781
1551.904297	34099.484375
1550.273438	34110.585938
1548.642578	33953.000000
1547.011719	34244.675781
1545.380859	34134.640625
1543.750000	33980.210938
1542.119141	34201.207031
1540.486328	33890.582031
1538.853516	33874.125000
1537.220703	33311.058594
1535.587891	33140.117188
1533.955078	32779.468750
1532.320313	32331.753906
1530.685547	32159.595703
1529.052734	31802.439453
1527.416016	31456.138672
1525.781250	31507.478516
1524.146484	31118.587891
1522.509766	31229.570313
1520.873047	31300.779297
1519.236328	31284.886719
1517.599609	31386.591797
1515.962891	31873.015625
1514.324219	31391.414063
1512.687500	31157.259766
1511.048828	31118.513672
1509.410156	30335.320313
1507.771484	30212.876953
1506.130859	29787.031250
1504.492188	29820.257813
1502.851563	29838.224609
1501.210938	29821.132813
1499.570313	29746.148438
1497.927734	29896.634766
1496.287109	29606.931641
1494.644531	29416.318359
1493.001953	29190.773438
1491.359375	28796.388672
1489.716797	28227.189453
1488.074219	27828.613281
1486.429688	27448.458984
1484.785156	27465.347656
1483.140625	27150.802734
1481.496094	27164.703125
1479.851563	27082.857422
1478.207031	26762.513672
1476.560547	26437.750000
1474.914063	26511.009766
1473.267578	26222.876953
1471.621094	26082.109375
1469.972656	26173.603516
1468.326172	26045.042969
1466.677734	25846.751953
1465.029297	26261.283203
1463.380859	26279.865234
1461.732422	26204.443359
1460.082031	26177.554688
1458.431641	26305.242188
1456.783203	26067.748047
1455.132813	26163.591797
1453.480469	26151.869141
1451.830078	25713.185547
1450.177734	25750.000000
1448.527344	25192.031250
1446.875000	24979.281250
1445.220703	24329.439453
1443.568359	24181.998047
1441.916016	23856.193359
1440.261719	23663.562500
1438.607422	23242.785156
1436.953125	23136.500000
1435.298828	22864.072266
1433.642578	22658.220703
1431.988281	22345.236328
1430.332031	22118.445313
1428.675781	22341.572266
1427.019531	21687.791016
1425.361328	21477.880859
1423.705078	21310.296875
1422.046875	21221.208984
1420.388672	21230.166016
1418.730469	21205.953125
1417.072266	20902.921875
1415.412109	21137.962891
1413.753906	20979.699219
1412.093750	21065.505859
1410.433594	20931.416016
1408.773438	21337.869141
1407.111328	21546.960938
1405.451172	21903.439453
1403.789063	22088.240234
1402.126953	22488.062500
1400.464844	22895.226563
1398.802734	22969.925781
1397.138672	22955.898438
1395.474609	23017.019531
1393.812500	22867.751953
1392.146484	22690.003906
1390.482422	22381.664063
1388.818359	22486.396484
1387.152344	22535.533203
1385.486328	22499.091797
1383.820313	22396.638672
1382.154297	22454.757813
1380.488281	22689.845703
1378.820313	22621.902344
1377.154297	22913.820313
1375.486328	23123.162109
1373.818359	22914.291016
1372.148438	23457.664063
1370.480469	23377.630859
1368.810547	23107.429688
1367.140625	23141.302734
1365.470703	23702.105469
1363.800781	23324.242188
1362.130859	23138.076172
1360.458984	23314.027344
1358.787109	23495.880859
1357.115234	23758.402344
1355.443359	23763.658203
1353.771484	24034.970703
1352.097656	24437.666016
1350.423828	24943.273438
1348.751953	25511.392578
1347.076172	26288.335938
1345.402344	27069.416016
1343.728516	27636.687500
1342.052734	28178.335938
1340.376953	28680.949219
1338.701172	29137.093750
1337.025391	29618.390625
1335.347656	29613.373047
1333.671875	30043.660156
1331.994141	29817.957031
1330.316406	30063.230469
1328.638672	29739.291016
1326.960938	30033.619141
1325.281250	29910.857422
1323.601563	29987.646484
1321.921875	29945.318359
1320.242188	29429.775391
1318.562500	29567.611328
1316.880859	29540.271484
1315.201172	29105.455078
1313.519531	28935.486328
1311.837891	28179.902344
1310.154297	27906.173828
1308.472656	26978.783203
1306.789063	26763.371094
1305.105469	25945.058594
1303.421875	25511.685547
1301.738281	25161.636719
1300.054688	24727.140625
1298.369141	24764.710938
1296.683594	24038.226563
1294.998047	23758.515625
1293.312500	23464.095703
1291.626953	23221.695313
1289.939453	22926.039063
1288.253906	22455.642578
1286.566406	22523.271484
1284.878906	22054.650391
1283.189453	21793.564453
1281.501953	21676.212891
1279.812500	21373.875000
1278.123047	21163.425781
1276.433594	20923.476563
1274.744141	20960.259766
1273.052734	20973.361328
1271.363281	20782.402344
1269.671875	20714.226563
1267.980469	20510.101563
1266.289063	20508.507813
1264.595703	20452.250000
1262.904297	20235.021484
1261.210938	20323.558594
1259.517578	20208.318359
1257.824219	19916.005859
1256.128906	19743.351563
1254.435547	19803.880859
1252.740234	19662.298828
1251.044922	19410.175781
1249.349609	19373.423828
1247.652344	19604.962891
1245.957031	19719.972656
1244.259766	19827.564453
1242.562500	19587.458984
1240.865234	19877.646484
1239.167969	19257.750000
1237.468750	19107.722656
1235.769531	19040.179688
1234.072266	18790.207031
1232.371094	18852.218750
1230.671875	18684.759766
1228.972656	18665.888672
1227.271484	18488.250000
1225.570313	18607.587891
1223.869141	18418.283203
1222.167969	18204.083984
1220.464844	18288.148438
1218.763672	18100.503906
1217.060547	17976.072266
1215.357422	17980.863281
1213.654297	17797.810547
1211.949219	17826.109375
1210.246094	17571.294922
1208.541016	17612.826172
1206.835938	17478.396484
1205.130859	17553.640625
1203.423828	17168.675781
1201.718750	17054.941406
1200.011719	16850.435547
1198.304688	16730.962891
1196.597656	17137.195313
1194.888672	17001.605469
1193.181641	16833.876953
1191.472656	17018.859375
1189.763672	17121.835938
1188.054688	17090.207031
1186.343750	17283.777344
1184.634766	17347.146484
1182.923828	17556.646484
1181.212891	17517.634766
1179.501953	17247.810547
1177.791016	17224.949219
1176.078125	17034.164063
1174.365234	17128.152344
1172.652344	16819.242188
1170.939453	16948.257813
1169.226563	16760.615234
1167.511719	16721.839844
1165.798828	16748.701172
1164.083984	16619.546875
1162.369141	16534.177734
1160.652344	16581.460938
1158.937500	16398.515625
1157.220703	16560.882813
1155.503906	16465.402344
1153.787109	16538.861328
1152.070313	16460.894531
1150.351563	16441.173828
1148.632813	16425.826172
1146.916016	16305.745117
1145.195313	16070.821289
1143.476563	16211.144531
1141.757813	16075.197266
1140.037109	15590.497070
1138.316406	15648.004883
1136.595703	15215.914063
1134.875000	14985.901367
1133.152344	14902.650391
1131.429688	14597.319336
1129.708984	14560.635742
1127.984375	14315.010742
1126.261719	14030.325195
1124.539063	13943.025391
1122.814453	13835.462891
1121.089844	13812.034180
1119.365234	13613.231445
1117.640625	13285.544922
1115.914063	13323.102539
1114.187500	13243.314453
1112.462891	13053.503906
1110.734375	13093.979492
1109.007813	12975.211914
1107.281250	12856.498047
1105.552734	12797.155273
1103.824219	12503.505859
1102.095703	12727.716797
1100.367188	12640.968750
1098.636719	12390.916992
1096.908203	12275.378906
1095.177734	12378.064453
1093.447266	12258.246094
1091.714844	12176.029297
1089.984375	12131.389648
1088.251953	12197.920898
1086.519531	12182.158203
1084.787109	12022.112305
1083.054688	12159.305664
1081.320313	12303.645508
1079.585938	12321.031250
1077.851563	12274.978516
1076.117188	12387.483398
1074.382813	12502.816406
1072.648438	12360.230469
1070.912109	12252.275391
1069.175781	12161.646484
1067.439453	12154.554688
1065.701172	12230.943359
1063.964844	12215.203125
1062.226563	11964.973633
1060.488281	11493.361328
1058.750000	11602.898438
1057.011719	11246.592773
1055.271484	11400.690430
1053.531250	11221.337891
1051.791016	11205.844727
1050.050781	11046.725586
1048.310547	11061.431641
1046.568359	11112.022461
1044.826172	10960.207031
1043.083984	11088.285156
1041.341797	10962.366211
1039.599609	11308.404297
1037.855469	11090.712891
1036.113281	11268.819336
1034.369141	11296.339844
1032.623047	11459.984375
1030.878906	11497.474609
1029.132813	11350.169922
1027.386719	11489.341797
1025.640625	11373.601563
1023.894531	11391.033203
1022.148438	11439.938477
1020.400391	11400.115234
1018.652344	11431.829102
1016.904297	11423.485352
1015.156250	11272.168945
1013.406250	11331.045898
1011.658203	11225.548828
1009.908203	11411.567383
1008.158203	11343.237305
1006.408203	11387.757813
1004.656250	11183.823242
1002.904297	11375.385742
1001.152344	11399.884766
999.400391	11455.761719
997.648438	11194.934570
995.896484	11189.506836
994.142578	10923.155273
992.388672	11018.999023
990.634766	10943.778320
988.878906	10867.166992
987.125000	11025.631836
985.369141	10847.917969
983.613281	11071.809570
981.857422	11111.962891
980.099609	11218.986328
978.343750	11116.798828
976.585938	11191.050781
974.828125	11242.512695
973.070313	11106.261719
971.310547	11059.629883
969.552734	11153.719727
967.792969	11182.403320
966.033203	11219.596680
964.273438	11265.291992
962.511719	11329.424805
960.750000	11806.623047
958.990234	11738.608398
957.226563	11741.570313
955.464844	11656.576172
953.703125	11517.726563
951.939453	11651.183594
950.175781	11296.919922
948.412109	10969.748047
946.648438	11036.639648
944.882813	10851.338867
943.117188	10850.242188
941.351563	10706.131836
939.585938	10533.774414
937.820313	10413.862305
936.052734	10425.597656
934.285156	10476.937500
932.517578	10484.408203
930.750000	10416.932617
928.982422	10603.947266
927.212891	10725.861328
925.443359	10758.697266
923.673828	10791.516602
921.904297	11013.576172
920.132813	11030.787109
918.361328	10815.057617
916.591797	10660.116211
914.818359	10591.319336
913.046875	10381.482422
911.275391	10466.512695
909.501953	10440.108398
907.728516	10402.436523
905.955078	10311.224609
904.179688	10218.644531
902.406250	10300.791016
900.630859	10127.974609
898.855469	10077.741211
897.080078	10175.345703
895.302734	10253.200195
893.525391	10105.878906
891.750000	10081.016602
889.970703	10046.318359
888.193359	10171.934570
886.416016	10145.665039
884.636719	9804.580078
882.857422	9927.351563
881.078125	9807.031250
879.296875	9992.944336
877.517578	9916.191406
875.736328	9798.762695
873.955078	9590.160156
872.173828	9655.273438
870.390625	9392.087891
868.609375	9513.316406
866.826172	9469.028320
865.042969	9490.647461
863.259766	9524.869141
861.474609	9504.426758
859.689453	9454.574219
857.904297	9470.570313
856.119141	9468.355469
854.333984	9449.341797
852.546875	9580.090820
850.761719	9509.285156
848.974609	9333.593750
847.185547	9433.505859
845.398438	9571.123047
843.609375	9721.256836
841.822266	9875.511719
840.031250	9983.583984
838.242188	9958.892578
836.453125	9998.458008
834.662109	9943.054688
832.871094	9731.327148
831.080078	9840.697266
829.289063	9711.415039
827.496094	9674.261719
825.703125	9842.141602
823.910156	9963.927734
822.117188	10038.259766
820.324219	9953.675781
818.529297	10015.432617
816.734375	9876.564453
814.939453	9811.573242
813.144531	9821.799805
811.347656	9843.156250
809.550781	9755.948242
807.755859	9881.663086
805.957031	9747.189453
804.160156	9822.779297
802.361328	9990.098633
800.564453	9939.096680
798.765625	9931.199219
796.964844	9958.041016
795.166016	9675.098633
793.365234	9485.336914
791.564453	9591.403320
789.763672	9526.679688
787.962891	9431.453125
786.160156	9638.740234
784.359375	9421.462891
782.556641	9313.844727
780.751953	9157.750000
778.949219	9062.718750
777.144531	9193.623047
775.339844	9052.905273
773.535156	9272.399414
771.730469	9137.266602
769.925781	9150.340820
768.119141	9364.118164
766.312500	9305.169922
764.505859	9372.151367
762.697266	9451.548828
760.890625	9555.800781
759.082031	9651.707031
757.273438	9884.409180
755.464844	10271.775391
753.654297	10953.235352
751.845703	11454.808594
750.035156	12166.045898
748.224609	13208.291992
746.412109	14290.073242
744.601563	15274.745117
742.789063	16361.041992
740.976563	17466.134766
739.164063	19163.662109
737.349609	21840.609375
735.537109	24796.085938
733.722656	27631.656250
731.908203	28814.050781
730.091797	27701.220703
728.277344	24696.886719
726.460938	20560.953125
724.644531	17108.277344
722.828125	14511.759766
721.009766	12553.427734
719.193359	11386.872070
717.375000	10667.764648
715.556641	10151.084961
713.736328	9862.800781
711.917969	9695.572266
710.097656	9763.335938
708.277344	9576.981445
706.457031	9582.949219
704.636719	9523.019531
702.814453	9364.300781
700.992188	9504.781250
699.169922	9542.309570
697.347656	9614.105469
695.523438	9666.669922
693.699219	10071.513672
691.875000	10226.731445
690.050781	10612.065430
688.226563	10721.875000
686.400391	10583.745117
684.574219	10612.723633
682.748047	10135.201172
680.921875	9879.610352
679.095703	9733.598633
677.267578	9631.429688
675.439453	9697.519531
673.611328	9544.816406
671.781250	9610.894531
669.953125	9674.207031
668.123047	9700.598633
666.292969	9505.692383
664.460938	9842.109375
662.630859	9533.939453
660.798828	9676.360352
658.966797	9605.825195
657.134766	9767.259766
655.302734	9838.591797
653.468750	9961.709961
651.634766	10056.137695
649.800781	10233.665039
647.966797	10176.719727
646.130859	10200.182617
644.294922	10170.512695
642.458984	10147.665039
640.623047	10073.093750
638.787109	10145.553711
636.949219	10077.820313
635.111328	10380.158203
633.273438	10059.417969
631.435547	10150.846680
629.595703	9988.010742
627.757813	10163.677734
625.917969	10096.032227
624.076172	10047.436523
622.236328	9903.791016
620.394531	9811.812500
618.552734	9685.937500
616.710938	9338.899414
614.869141	9289.180664
613.025391	9170.301758
611.183594	9047.410156
609.339844	8993.726563
607.494141	9003.781250
605.650391	8975.882813
603.804688	8651.266602
601.958984	8618.045898
600.113281	8510.354492
598.267578	8516.446289
596.419922	8592.924805
594.572266	8581.400391
592.724609	8656.472656
590.876953	8580.007813
589.027344	8648.281250
587.179688	8548.870117
585.330078	8553.586914
583.480469	8428.568359
581.628906	8456.278320
579.779297	8542.055664
577.927734	8488.699219
576.076172	8718.886719
574.222656	8905.770508
572.371094	9054.780273
570.517578	9004.047852
568.664063	9340.445313
566.810547	9390.802734
564.955078	9201.164063
563.101563	9135.616211
561.246094	9041.801758
559.390625	8974.974609
557.533203	8760.023438
555.677734	8619.235352
553.820313	8547.169922
551.962891	8389.000977
550.105469	8150.172852
548.246094	8089.032227
546.386719	8065.578125
544.527344	8019.276855
542.667969	7995.849609
540.808594	7924.049805
538.947266	7877.813477
537.085938	7909.511719
535.224609	7753.173340
533.363281	7669.414551
531.500000	7652.812988
529.638672	7691.242676
527.775391	7740.387207
525.910156	7715.730469
524.046875	7776.914551
522.181641	8007.003906
520.316406	8287.918945
518.451172	8032.652832
516.585938	7875.313477
514.718750	7614.909668
512.851563	7459.083496
510.984375	7363.579102
509.117188	7373.862793
507.250000	7325.260254
505.380859	7401.102539
503.511719	7325.764648
501.642578	7314.649414
499.771484	7362.363281
497.902344	7438.122070
496.031250	7572.639648
494.160156	7294.284180
492.287109	7365.996582
490.416016	7356.220215
488.542969	7327.758301
486.669922	7317.994629
484.796875	7357.606445
482.921875	7319.824707
481.046875	7383.422852
479.171875	7436.322754
477.296875	7635.834961
475.421875	7643.334473
473.544922	7688.138184
471.667969	7614.361816
469.791016	7679.126953
467.914063	7781.141602
466.035156	7680.771484
464.156250	7714.863770
462.277344	7449.572266
460.398438	7418.522461
458.519531	7412.754883
456.638672	7348.489258
454.757813	7297.545898
452.876953	7270.547363
450.994141	7405.651367
449.113281	7180.724121
447.230469	7350.311035
445.347656	7271.545898
443.462891	7224.673828
441.580078	7195.074707
439.695313	7182.736816
437.810547	7326.916992
435.925781	7475.005371
434.039063	7564.690430
432.152344	7346.833008
430.267578	7415.302734
428.378906	7420.149414
426.492188	7345.524902
424.603516	7210.024902
422.714844	7286.403320
420.826172	7141.716309
418.937500	7190.286621
417.046875	7322.174805
415.158203	7160.389160
413.265625	7228.752441
411.375000	7170.176758
409.484375	7167.136719
407.591797	7121.815918
405.699219	7010.467773
403.806641	6992.939453
401.912109	6975.419434
400.019531	7087.270996
