#Wave		#Intensity
1585.210938	5614.708008
1584.209961	5737.092773
1583.208984	5703.441406
1582.208008	5727.225586
1581.206055	5823.386719
1580.204102	5664.958984
1579.202148	5723.666992
1578.200195	5560.335938
1577.198242	5813.574707
1576.195313	5675.227539
1575.192383	5636.657227
1574.189453	5715.249023
1573.186523	5689.145508
1572.182617	5675.509766
1571.178711	5534.842285
1570.174805	5610.898926
1569.170898	5671.984375
1568.166992	5518.957520
1567.162109	5619.857910
1566.158203	5534.090332
1565.153320	5600.115723
1564.147461	5656.164063
1563.142578	5682.347656
1562.136719	5440.000977
1561.130859	5578.078125
1560.125000	5512.306152
1559.119141	5655.279785
1558.113281	5681.435547
1557.106445	5638.036133
1556.099609	5698.948730
1555.092773	5571.151367
1554.084961	5679.213867
1553.078125	5715.262695
1552.070313	5649.569336
1551.062500	5755.066895
1550.054688	5709.233398
1549.045898	5705.571777
1548.038086	5744.055664
1547.029297	5705.687988
1546.020508	5570.690918
1545.011719	5537.329590
1544.001953	5476.733887
1542.992188	5386.445313
1541.982422	5343.237793
1540.972656	5503.039063
1539.962891	5459.825195
1538.952148	5431.475586
1537.942383	5338.813965
1536.931641	5503.430176
1535.919922	5465.196777
1534.909180	5486.316895
1533.897461	5457.989746
1532.886719	5506.288086
1531.874023	5307.476563
1530.862305	5518.830566
1529.850586	5268.230957
1528.837891	5444.934082
1527.825195	5490.714355
1526.812500	5489.577637
1525.799805	5520.522949
1524.786133	5418.219727
1523.772461	5476.301270
1522.758789	5428.307617
1521.745117	5382.799805
1520.731445	5500.018066
1519.716797	5390.429688
1518.702148	5490.347656
1517.687500	5605.006348
1516.672852	5456.051758
1515.657227	5506.639160
1514.642578	5535.045410
1513.626953	5551.130859
1512.610352	5500.757324
1511.594727	5492.236328
1510.579102	5547.682617
1509.562500	5352.220215
1508.545898	5471.610352
1507.529297	5507.356445
1506.511719	5358.727539
1505.494141	5556.685059
1504.477539	5373.708008
1503.458984	5399.617188
1502.441406	5364.113281
1501.423828	5397.380371
1500.405273	5428.178223
1499.386719	5400.053223
1498.368164	5425.929199
1497.348633	5491.050781
1496.330078	5499.725586
1495.310547	5488.775879
1494.291016	5551.391113
1493.271484	5530.628418
1492.250977	5411.833984
1491.231445	5393.559082
1490.210938	5394.891113
1489.190430	5452.561035
1488.168945	5365.716309
1487.148438	5396.434570
1486.126953	5461.411133
1485.105469	5403.987305
1484.083984	5544.790527
1483.061523	5453.122559
1482.040039	5434.870605
1481.017578	5416.625977
1479.995117	5459.511230
1478.971680	5607.488770
1477.949219	5647.872559
1476.925781	5646.701172
1475.902344	5655.302246
1474.878906	5749.382324
1473.855469	5738.422363
1472.831055	5676.198242
1471.806641	5655.493652
1470.782227	5751.935059
1469.757813	5870.294922
1468.733398	5837.365723
1467.708008	5853.226563
1466.682617	6034.887695
1465.657227	5904.430664
1464.631836	6110.378418
1463.605469	6189.525391
1462.579102	6256.458008
1461.552734	6411.051758
1460.526367	6460.862305
1459.500000	6479.000000
1458.472656	6219.620117
1457.445313	6432.502441
1456.417969	6472.533203
1455.390625	6320.356934
1454.362305	6272.831543
1453.334961	6074.556152
1452.306641	6192.426758
1451.277344	6174.125488
1450.249023	6253.041992
1449.219727	6079.231445
1448.191406	5798.605469
1447.162109	5904.265625
1446.131836	5864.187500
1445.102539	5879.963379
1444.072266	5818.061523
1443.041992	5845.973145
1442.011719	5793.808105
1440.981445	5860.524414
1439.950195	5898.109863
1438.918945	5940.528809
1437.887695	5837.477539
1436.856445	5833.840820
1435.825195	5820.512207
1434.792969	5688.476563
1433.760742	5609.784180
1432.728516	5722.437012
1431.696289	5781.776855
1430.663086	5669.223145
1429.629883	5537.354980
1428.596680	5550.721191
1427.563477	5559.243652
1426.530273	5613.716309
1425.496094	5479.549805
1424.461914	5444.562988
1423.427734	5501.441895
1422.393555	5495.463867
1421.358398	5429.083984
1420.323242	5411.044922
1419.288086	5344.709961
1418.252930	5611.622070
1417.217773	5535.615723
1416.181641	5338.958984
1415.145508	5538.137695
1414.109375	5534.571777
1413.073242	5600.958984
1412.036133	5607.027344
1411.000000	5364.747559
1409.962891	5537.194824
1408.924805	5545.681641
1407.887695	5578.260742
1406.849609	5692.736328
1405.812500	5583.162598
1404.773438	5767.423340
1403.735352	5824.004395
1402.697266	5762.612793
1401.658203	6059.830566
1400.619141	5909.389160
1399.580078	5910.562500
1398.540039	5921.355469
1397.500977	5946.571777
1396.460938	5822.722656
1395.420898	5823.911621
1394.380859	5786.650391
1393.339844	5874.339355
1392.298828	5731.390625
1391.257813	5756.612305
1390.216797	5767.416504
1389.175781	5751.809082
1388.133789	5673.806152
1387.091797	5735.011230
1386.049805	5800.988281
1385.007813	5866.937500
1383.964844	5731.419922
1382.922852	5919.632324
1381.879883	6019.073242
1380.835938	6092.110352
1379.792969	6268.147949
1378.749023	6281.211914
1377.706055	6315.825684
1376.661133	6400.710938
1375.617188	6363.462402
1374.573242	6333.409180
1373.528320	6214.824707
1372.483398	6261.377441
1371.438477	6276.812988
1370.392578	6337.681641
1369.347656	6178.544922
1368.301758	6158.128418
1367.255859	6130.549316
1366.208984	6057.579590
1365.163086	6046.756348
1364.116211	5992.942383
1363.069336	5877.060547
1362.022461	5961.783691
1360.974609	5936.665039
1359.927734	5823.252930
1358.879883	6041.553223
1357.832031	6011.661621
1356.783203	5900.688965
1355.735352	5982.913574
1354.686523	5926.826660
1353.637695	6051.915039
1352.588867	6019.667480
1351.539063	6016.023438
1350.490234	6160.069824
1349.440430	6201.647461
1348.390625	6488.458984
1347.339844	6587.083984
1346.290039	6480.979004
1345.239258	6684.264648
1344.188477	6789.922363
1343.137695	6776.604980
1342.085938	7036.773926
1341.034180	6978.235840
1339.982422	7145.545410
1338.930664	7236.733398
1337.878906	7285.112793
1336.826172	7342.973633
1335.773438	7248.803223
1334.720703	7423.001953
1333.667969	7428.565918
1332.614258	7310.699219
1331.561523	7413.580566
1330.507813	7210.352051
1329.453125	7125.813477
1328.399414	7114.830078
1327.344727	7018.490723
1326.290039	6843.960938
1325.235352	7070.053711
1324.180664	6665.732422
1323.125000	6842.015137
1322.070313	6681.878906
1321.014648	6687.578125
1319.958008	6626.980957
1318.902344	6377.039063
1317.845703	6527.161621
1316.789063	6338.864258
1315.732422	6304.411133
1314.675781	6149.350586
1313.618164	6273.382324
1312.560547	6234.235352
1311.502930	6110.013184
1310.445313	5924.401367
1309.386719	5960.956055
1308.329102	5940.803711
1307.270508	6034.018066
1306.210938	5909.966797
1305.152344	5849.705078
1304.092773	5879.154297
1303.033203	5790.607910
1301.973633	5739.844727
1300.914063	5731.558594
1299.853516	5676.111816
1298.792969	5561.746582
1297.732422	5730.290039
1296.671875	5566.470703
1295.611328	5541.734375
1294.549805	5446.337891
1293.488281	5456.964355
1292.426758	5340.432617
1291.364258	5459.369141
1290.302734	5394.666504
1289.240234	5534.719238
1288.177734	5399.446289
1287.114258	5468.872070
1286.051758	5336.020996
1284.988281	5285.518555
1283.924805	5359.624023
1282.861328	5407.846191
1281.796875	5340.910645
1280.732422	5372.670898
1279.667969	5566.479004
1278.603516	5497.203125
1277.539063	5594.645020
1276.473633	5645.100586
1275.408203	5486.674805
1274.342773	5745.946777
1273.277344	5704.853027
1272.210938	5588.728516
1271.145508	5547.684570
1270.079102	5710.607910
1269.011719	5568.772949
1267.945313	5534.787598
1266.877930	5439.904785
1265.810547	5443.436523
1264.743164	5449.308594
1263.674805	5464.542480
1262.607422	5315.915039
1261.539063	5277.343750
1260.470703	5206.031250
1259.401367	5275.105957
1258.333008	5325.440430
1257.263672	5118.540527
1256.194336	5154.859375
1255.125000	5142.079102
1254.054688	5031.157715
1252.985352	5039.435059
1251.915039	5101.432617
1250.843750	5086.337402
1249.773438	5082.922363
1248.702148	5093.514648
1247.630859	5150.778320
1246.559570	4995.683594
1245.488281	5143.924316
1244.416016	5145.163086
1243.343750	5071.782227
1242.271484	5091.686035
1241.199219	5146.544434
1240.125977	5063.886719
1239.053711	4981.264160
1237.980469	5050.085938
1236.906250	5156.140137
1235.833008	5157.371094
1234.758789	5058.501953
1233.684570	5006.222656
1232.610352	5102.886719
1231.536133	5069.230469
1230.460938	4986.744141
1229.385742	5048.467773
1228.310547	5077.616211
1227.235352	5081.183105
1226.159180	5133.550781
1225.083008	5011.638184
1224.006836	4975.725586
1222.930664	4986.276855
1221.853516	5061.837891
1220.777344	5116.473145
1219.700195	4938.988770
1218.622070	5042.355957
1217.544922	4946.161133
1216.466797	4905.674805
1215.388672	5050.722656
1214.310547	5049.644531
1213.232422	5078.700195
1212.153320	4989.550781
1211.074219	5060.311523
1209.995117	5010.583984
1208.916016	4963.193359
1207.835938	5128.849121
1206.755859	5039.782715
1205.675781	4929.922852
1204.595703	4956.636719
1203.514648	4846.840820
1202.434570	4924.447266
1201.353516	4941.894043
1200.271484	4806.738281
1199.190430	4918.975586
1198.108398	4952.588379
1197.026367	4840.621094
1195.944336	5019.770020
1194.862305	4924.002441
1193.779297	4913.711426
1192.696289	4783.378418
1191.613281	4890.833496
1190.530273	4772.098145
1189.446289	4971.792969
1188.362305	4889.996094
1187.278320	4826.682617
1186.194336	4788.757813
1185.109375	4737.018066
1184.024414	4823.577637
1182.939453	4774.155762
1181.854492	4706.325684
1180.768555	4684.587402
1179.683594	4722.726563
1178.597656	4774.662109
1177.510742	4762.128418
1176.424805	4565.506836
1175.337891	4649.650879
1174.250977	4729.157715
1173.164063	4663.750488
1172.077148	4704.133301
1170.989258	4592.785156
1169.901367	4704.409180
1168.813477	4675.825195
1167.724609	4723.060547
1166.636719	4653.143066
1165.547852	4599.329102
1164.458984	4680.985352
1163.369141	4714.406250
1162.280273	4734.043945
1161.190430	4691.728516
1160.100586	4745.768066
1159.010742	4783.730957
1157.919922	4782.700684
1156.829102	4678.518066
1155.738281	4769.180664
1154.647461	4710.870605
1153.555664	4661.748535
1152.464844	4777.548340
1151.373047	4778.807617
1150.280273	4789.223633
1149.188477	4774.457520
1148.095703	4745.967285
1147.002930	4756.382324
1145.910156	4750.780762
1144.817383	4822.933594
1143.723633	4622.980957
1142.629883	4775.134277
1141.536133	4785.529297
1140.441406	4741.083008
1139.347656	4749.195801
1138.252930	4704.775879
1137.158203	4749.426758
1136.062500	4768.945801
1134.967773	4765.631836
1133.872070	4691.580566
1132.776367	4565.088379
1131.679688	4732.888184
1130.583984	4718.181152
1129.487305	4796.957520
1128.390625	4652.314941
1127.292969	4879.201172
1126.196289	4837.132813
1125.098633	4801.915527
1124.000977	4766.713379
1122.903320	4731.526367
1121.804688	4764.647949
1120.706055	4672.576172
1119.607422	4814.918457
1118.508789	4636.425293
1117.409180	4669.537109
1116.310547	4768.580566
1115.210938	4817.562988
1114.110352	4707.413086
1113.010742	4747.296387
1111.910156	4771.258301
1110.809570	4683.904297
1109.708984	4696.513184
1108.607422	4684.140625
1107.506836	4705.823242
1106.405273	4736.574707
1105.303711	4665.204590
1104.201172	4562.104492
1103.098633	4601.937988
1101.996094	4746.063477
1100.893555	4584.067383
1099.791016	4653.334961
1098.687500	4491.428711
1097.583984	4651.310059
1096.480469	4688.805176
1095.376953	4563.229980
1094.272461	4562.236328
1093.167969	4654.052246
1092.063477	4639.459961
1090.958008	4552.468262
1089.853516	4632.914063
1088.748047	4502.989258
1087.642578	4601.499512
1086.536133	4491.983887
1085.430664	4719.283691
1084.324219	4607.529297
1083.217773	4633.634766
1082.110352	4734.266113
1081.003906	4740.007813
1079.896484	4716.395996
1078.789063	4663.450195
1077.680664	4705.310059
1076.573242	4668.182617
1075.464844	4583.700195
1074.356445	4695.461914
1073.247070	4507.290039
1072.138672	4585.205078
1071.029297	4672.100586
1069.919922	4565.174316
1068.809570	4516.867188
1067.700195	4628.495117
1066.589844	4616.223633
1065.479492	4705.266602
1064.368164	4683.979980
1063.257813	4669.452637
1062.146484	4659.431152
1061.035156	4527.948730
1059.922852	4666.386719
1058.811523	4642.880859
1057.699219	4648.607422
1056.586914	4620.620605
1055.473633	4644.323730
1054.361328	4589.392090
1053.248047	4642.288086
1052.134766	4625.552246
1051.021484	4736.784180
1049.907227	4724.522949
1048.792969	4620.265625
1047.678711	4733.667480
1046.564453	4698.984375
1045.449219	4729.347168
1044.333984	4676.743652
1043.218750	4599.506836
1042.103516	4672.449219
1040.987305	4729.675293
1039.871094	4571.836426
1038.754883	4646.975098
1037.638672	4652.670898
1036.521484	4743.427734
1035.404297	4782.669434
1034.287109	4712.253906
1033.169922	4731.351074
1032.051758	4721.363770
1030.933594	4780.698730
1029.815430	4804.237793
1028.697266	4738.363281
1027.578125	4641.232910
1026.458984	4707.233887
1025.339844	4703.963379
1024.220703	4781.086426
1023.100586	4771.102539
1021.980469	4680.766113
1020.860352	4659.649902
1019.740234	4727.788086
1018.619141	4655.365234
1017.498047	4616.425781
1016.376953	4771.484375
1015.255859	4636.681641
1014.133789	4776.065430
1013.011719	4734.903809
1011.889648	4740.541992
1010.767578	4826.356445
1009.644531	4789.663574
1008.521484	4879.880859
1007.398438	4794.225586
1006.274414	4741.985840
1005.151367	4754.286621
1004.027344	4726.544922
1002.902344	4870.044922
1001.778320	4840.065430
1000.653320	4705.628418
999.528320	4760.145020
998.403320	4732.430664
997.278320	4778.030762
996.152344	4690.361816
995.026367	4775.916504
993.900391	4661.647949
992.773438	4633.983887
991.646484	4715.055176
990.519531	4556.507324
989.392578	4792.809570
988.265625	4740.748047
987.137695	4710.877930
986.009766	4610.096191
984.881836	4662.255859
983.752930	4661.222168
982.624023	4569.376953
981.495117	4608.223145
980.366211	4591.703125
979.236328	4646.020508
978.106445	4653.841309
976.976563	4683.782715
975.846680	4722.558594
974.715820	4621.993164
973.585938	4583.380371
972.454102	4708.360352
971.323242	4669.744141
970.191406	4620.097168
969.060547	4683.132324
967.927734	4657.797363
966.795898	4678.842285
965.663086	4728.575684
964.530273	4787.114746
963.397461	4914.030762
962.264648	4906.319336
961.130859	4832.443359
959.997070	4923.981934
958.863281	4984.614746
957.729492	5001.137695
956.594727	4911.879395
955.459961	4798.425293
954.325195	4792.951172
953.189453	4871.161133
952.053711	4850.260254
950.917969	4811.759766
949.782227	4645.635742
948.646484	4715.006348
947.509766	4698.557129
946.373047	4741.493164
945.235352	4742.634277
944.098633	4800.928223
942.960938	4766.890625
941.823242	4671.345215
940.685547	4670.302734
939.546875	4673.652344
938.408203	4720.915527
937.269531	4675.955566
936.129883	4668.326660
934.991211	4645.340820
933.851563	4756.187012
932.711914	4726.610840
931.571289	4585.212891
930.431641	4724.497559
929.291016	4644.534668
928.149414	4759.637695
927.008789	4771.718262
925.867188	4757.508301
924.725586	4725.785645
923.583984	4818.872070
922.441406	4741.181152
921.299805	4615.379883
920.157227	4671.232422
919.013672	4628.625000
917.871094	4677.888184
916.727539	4619.992188
915.583984	4671.419922
914.439453	4626.663574
913.295898	4632.181152
912.151367	4580.899414
911.006836	4625.736328
909.861328	4532.990723
908.716797	4588.732910
907.571289	4565.877930
906.424805	4625.951172
905.279297	4709.993652
904.132813	4623.874512
902.986328	4679.531738
901.839844	4715.542480
900.692383	4692.687500
899.545898	4685.096191
898.398438	4688.400879
897.250000	4600.222168
896.102539	4579.589355
894.954102	4752.732422
893.805664	4697.247559
892.656250	4815.880859
891.507813	4708.189453
890.358398	4707.130371
889.208984	4649.528809
888.058594	4707.187012
886.908203	4649.610352
885.758789	4618.138672
884.607422	4510.634277
883.457031	4605.198242
882.305664	4604.161133
881.154297	4679.119629
880.002930	4704.114746
878.850586	4540.282227
877.698242	4595.674316
876.545898	4598.977539
875.393555	4543.719727
874.240234	4581.725586
873.086914	4595.867676
871.933594	4605.667969
870.780273	4569.959473
869.625977	4571.094727
868.471680	4637.206543
867.317383	4651.317871
866.162109	4617.794434
865.007813	4666.534180
863.852539	4656.824707
862.696289	4586.542480
861.541016	4676.351563
860.384766	4560.683594
859.228516	4708.831055
858.072266	4608.337891
856.915039	4665.644043
855.757813	4576.007813
854.600586	4598.733887
853.442383	4632.247070
852.285156	4620.403809
851.126953	4643.103516
849.968750	4728.376953
848.809570	4556.856445
847.650391	4568.768066
846.491211	4582.830566
845.332031	4605.510742
844.171875	4688.538574
843.012695	4607.736328
841.851563	4669.178223
840.691406	4579.799316
839.530273	4533.534180
838.369141	4564.805664
837.208008	4518.563965
836.046875	4569.193848
834.884766	4516.516113
833.722656	4698.349121
832.560547	4660.721191
831.397461	4752.126465
830.234375	4738.149902
829.071289	4605.967285
827.908203	4660.791992
826.744141	4578.097656
825.580078	4705.929688
824.416016	4655.472168
823.251953	4557.806152
822.086914	4561.064453
820.921875	4678.053223
819.756836	4556.847656
818.590820	4641.609863
817.425781	4516.178223
816.259766	4590.190430
815.092773	4541.991211
813.926758	4613.819824
812.759766	4612.771484
811.592773	4579.592773
810.424805	4612.815918
809.257813	4547.536133
808.089844	4587.171875
806.920898	4536.907715
805.752930	4563.689941
804.583984	4622.545410
803.415039	4506.009766
802.246094	4564.851074
801.076172	4548.848633
799.906250	4605.515625
798.736328	4583.100586
797.566406	4577.784668
796.395508	4487.043945
795.224609	4575.699707
794.053711	4463.652832
792.881836	4537.333496
791.710938	4604.578613
790.538086	4626.994629
789.366211	4630.205566
788.194336	4492.685059
787.021484	4519.374023
785.848633	4514.080566
784.674805	4615.330078
783.500977	4584.452637
782.327148	4636.652832
781.153320	4588.749023
779.979492	4549.382324
778.804688	4693.074219
777.629883	4549.434082
776.454102	4578.179199
775.279297	4577.133789
774.103516	4533.560059
772.927734	4549.532227
771.750977	4603.755371
770.575195	4485.829590
769.398438	4459.311035
768.220703	4498.647949
767.043945	4531.596680
765.866211	4596.375000
764.688477	4559.240723
763.510742	4632.470703
762.332031	4610.195801
761.153320	4698.227539
759.974609	4675.947266
758.794922	4668.517090
757.616211	4726.799316
756.436523	4545.589355
755.255859	4750.060547
754.076172	4759.564453
752.895508	4665.295898
751.714844	4759.502930
750.533203	4743.596191
749.352539	4780.602539
748.170898	4868.369629
746.988281	4998.402344
745.806641	5174.899902
744.624023	5281.544434
743.441406	5574.155762
742.258789	5919.466309
741.075195	6459.000977
739.891602	7182.064453
738.708008	7792.865723
737.523438	8589.189453
736.339844	9262.714844
735.155273	9634.137695
733.969727	10075.018555
732.785156	9946.139648
731.599609	9758.267578
730.414063	9256.314453
729.227539	8767.239258
728.041992	7949.612305
726.855469	7307.245117
725.667969	6724.155762
724.481445	6185.561523
723.293945	5796.711426
722.106445	5635.392090
720.918945	5463.623047
719.730469	5176.204102
718.541992	5076.143066
717.353516	5154.897949
716.164063	4972.881836
714.975586	4776.232910
713.786133	4873.916992
712.595703	4713.102051
711.406250	4598.577637
710.215820	4708.835449
709.025391	4510.372070
707.833984	4618.499512
706.642578	4564.966797
705.451172	4582.802246
704.259766	4491.539551
703.068359	4702.342773
701.875977	4520.927246
700.683594	4477.958984
699.490234	4537.710938
698.297852	4532.476074
697.104492	4623.611816
695.910156	4498.972656
694.716797	4527.253418
693.522461	4725.096680
692.328125	4642.379883
691.132813	4666.421875
689.938477	4682.083984
688.743164	4649.631836
687.547852	4728.023438
686.351563	4632.855957
685.155273	4776.009277
683.958984	4620.272949
682.762695	4646.368164
681.565430	4601.434570
680.368164	4708.962402
679.170898	4492.838867
677.973633	4623.301270
676.775391	4707.793945
675.577148	4623.256348
674.378906	4680.593262
673.179688	4683.685059
671.980469	4647.162109
670.781250	4694.031250
669.581055	4811.730957
668.381836	4710.617188
667.181641	4836.589844
665.980469	4773.000000
664.780273	4676.127930
663.579102	4812.427734
662.377930	4838.370605
661.175781	4943.361328
659.973633	4925.580078
658.771484	4864.135254
657.569336	4827.667969
656.367188	4878.518555
655.164063	4925.189453
653.960938	4903.275879
652.756836	5016.388184
651.552734	4998.616211
650.348633	5107.501465
649.144531	5064.807129
647.939453	5055.335938
646.735352	5029.270508
645.529297	5117.303711
644.324219	5114.047363
643.118164	5065.178711
641.912109	5032.915527
640.706055	5013.100586
639.499023	5136.256348
638.292969	5021.140625
637.084961	5098.676270
635.877930	5064.370117
634.669922	5011.449219
633.461914	5064.097656
632.253906	5143.619141
631.044922	5140.361328
629.836914	5077.129883
628.626953	5104.902344
627.417969	5132.661133
626.208008	5015.741699
624.998047	4921.604004
623.788086	4982.436035
622.577148	4880.088379
621.366211	4854.182129
620.155273	4842.737793
618.944336	4841.617188
617.732422	4811.610352
616.520508	4705.292969
615.308594	4685.643066
614.095703	4696.929688
612.882813	4656.675781
611.669922	4632.927734
610.457031	4609.190430
609.243164	4700.821289
608.029297	4621.472656
606.815430	4581.281250
605.600586	4526.698730
604.385742	4494.779785
603.170898	4302.384277
601.955078	4531.782715
600.740234	4499.883789
599.524414	4576.974609
598.307617	4510.133301
597.091797	4509.088379
595.875000	4388.870117
594.658203	4465.914551
593.440430	4512.116211
592.222656	4428.938965
591.004883	4409.437500
589.787109	4490.508789
588.568359	4509.986816
587.349609	4609.459473
586.130859	4419.707520
584.912109	4545.809570
583.692383	4567.305664
582.472656	4545.751953
581.251953	4487.326172
580.032227	4514.964844
578.811523	4540.542969
577.589844	4527.204590
576.369141	4493.401367
575.147461	4537.385254
573.925781	4581.348633
572.703125	4500.504395
571.481445	4546.500488
570.258789	4672.219727
569.035156	4705.888672
567.812500	4706.840820
566.588867	4570.890625
565.365234	4618.858398
564.140625	4625.956543
562.916992	4645.302246
561.692383	4756.502441
560.466797	4667.638672
559.242188	4629.827148
558.016602	4716.472656
556.791016	4601.165039
555.564453	4642.917480
554.337891	4647.956055
553.111328	4438.990723
551.884766	4588.745605
550.657227	4634.535156
549.429688	4480.708496
548.202148	4677.181152
546.974609	4606.880371
545.746094	4548.823730
544.517578	4677.995117
543.288086	4603.673828
542.058594	4690.060547
540.829102	4682.872070
539.599609	4681.785156
538.370117	4672.568359
537.139648	4742.602539
535.909180	4731.344238
534.677734	4695.718750
533.446289	4712.903320
532.214844	4650.907227
530.983398	4611.264648
529.750977	4622.369141
528.519531	4554.350098
527.286133	4709.463867
526.053711	4548.180176
524.820313	4676.868164
523.586914	4677.809082
522.353516	4676.723145
521.119141	4785.032715
519.884766	4674.551758
518.650391	4624.868652
517.415039	4593.428711
516.179688	4746.182617
514.944336	4548.802246
513.708984	4489.078613
