#Wave		#Intensity
2109.224609	10909.569336
2107.712891	10863.258789
2106.201172	10702.162109
2104.687500	10875.093750
2103.175781	10872.742188
2101.662109	10766.283203
2100.150391	10846.566406
2098.636719	10726.944336
2097.123047	10899.683594
2095.607422	10715.708008
2094.093750	10734.855469
2092.578125	10770.498047
2091.064453	10741.774414
2089.548828	10798.846680
2088.033203	10842.699219
2086.517578	10818.925781
2085.000000	10752.297852
2083.484375	10688.996094
2081.966797	10760.849609
2080.449219	10840.910156
2078.931641	10795.749023
2077.414063	10895.529297
2075.894531	10741.708008
2074.376953	10666.966797
2072.857422	10654.797852
2071.337891	10738.069336
2069.818359	10806.499023
2068.298828	10764.703125
2066.777344	10698.259766
2065.257813	10750.213867
2063.736328	10742.973633
2062.214844	10735.736328
2060.693359	10919.085938
2059.171875	10985.731445
2057.648438	10720.613281
2056.126953	10841.456055
2054.603516	10647.069336
2053.080078	10618.526367
2051.556641	10798.382813
2050.033203	10843.642578
2048.507813	10770.792969
2046.984375	10994.775391
2045.458984	10807.163086
2043.933594	10776.984375
2042.408203	10877.916016
2040.882813	10834.627930
2039.355469	10778.252930
2037.830078	10939.714844
2036.302734	11119.117188
2034.775391	10925.211914
2033.248047	10926.148438
2031.718750	10845.269531
2030.191406	10754.610352
2028.662109	11022.182617
2027.134766	10818.693359
2025.605469	10813.111328
2024.076172	10787.917969
2022.544922	10821.565430
2021.015625	10783.309570
2019.484375	11026.029297
2017.955078	10857.095703
2016.423828	10836.817383
2014.892578	10974.893555
2013.359375	10822.399414
2011.828125	10767.875000
2010.294922	10796.574219
2008.761719	10923.124023
2007.230469	10976.238281
2005.695313	11006.504883
2004.162109	10992.749023
2002.628906	10817.662109
2001.093750	10960.365234
1999.558594	10883.097656
1998.023438	11027.354492
1996.488281	10972.901367
1994.953125	10884.284180
1993.417969	11018.682617
1991.880859	11192.077148
1990.343750	11088.828125
1988.806641	11071.829102
1987.269531	11014.182617
1985.732422	10967.940430
1984.193359	11137.910156
1982.656250	11025.030273
1981.117188	11112.049805
1979.578125	11059.328125
1978.039063	11173.913086
1976.500000	11152.051758
1974.958984	11320.140625
1973.417969	11247.942383
1971.878906	11086.524414
1970.337891	11080.923828
1968.796875	11354.317383
1967.253906	11278.928711
1965.712891	11213.299805
1964.169922	11338.978516
1962.626953	11420.844727
1961.083984	11319.580078
1959.541016	11294.497070
1957.998047	11296.958984
1956.455078	11284.844727
1954.910156	11405.490234
1953.365234	11529.321289
1951.820313	11534.965820
1950.275391	11627.976563
1948.730469	11565.659180
1947.183594	11420.889648
1945.638672	11437.870117
1944.091797	11461.309570
1942.544922	11476.657227
1940.998047	11322.333008
1939.449219	11428.172852
1937.902344	11456.438477
1936.353516	11436.247070
1934.804688	11272.374023
1933.255859	11300.654297
1931.707031	11232.093750
1930.158203	11119.998047
1928.607422	11061.183594
1927.058594	11084.644531
1925.507813	11122.608398
1923.957031	10983.223633
1922.406250	11000.239258
1920.853516	11005.966797
1919.302734	11076.134766
1917.750000	11075.400391
1916.197266	11002.198242
1914.644531	11131.893555
1913.091797	11057.100586
1911.539063	11094.994141
1909.984375	11000.931641
1908.431641	11119.254883
1906.876953	11084.735352
1905.322266	10942.493164
1903.767578	10927.317383
1902.210938	10997.334961
1900.656250	11022.327148
1899.099609	10978.222656
1897.542969	10853.821289
1895.986328	10941.459961
1894.429688	11085.258789
1892.873047	10930.412109
1891.314453	11111.064453
1889.755859	11102.296875
1888.199219	11016.527344
1886.640625	11137.701172
1885.080078	11122.517578
1883.521484	11153.833984
1881.960938	11207.578125
1880.402344	11160.337891
1878.841797	11033.003906
1877.281250	11017.856445
1875.720703	10965.879883
1874.158203	11091.660156
1872.597656	10905.214844
1871.035156	11011.747070
1869.472656	10982.216797
1867.910156	11114.285156
1866.347656	11046.356445
1864.783203	11044.022461
1863.220703	10939.362305
1861.656250	10932.255859
1860.091797	11051.407227
1858.527344	11207.258789
1856.962891	11140.991211
1855.396484	11213.705078
1853.832031	11081.993164
1852.265625	11074.862305
1850.699219	11109.235352
1849.132813	11194.658203
1847.566406	11326.314453
1845.998047	11293.614258
1844.431641	11297.608398
1842.863281	11381.324219
1841.294922	11233.854492
1839.726563	11083.258789
1838.156250	11262.572266
1836.587891	11233.110352
1835.017578	11095.351563
1833.449219	11191.740234
1831.878906	11146.389648
1830.306641	11300.030273
1828.736328	11370.850586
1827.166016	11397.088867
1825.593750	11339.005859
1824.021484	11435.217773
1822.449219	11261.073242
1820.876953	11261.874023
1819.304688	11386.650391
1817.730469	11298.435547
1816.158203	11365.955078
1814.583984	11315.902344
1813.009766	11396.092773
1811.435547	11358.755859
1809.859375	11373.819336
1808.285156	11387.288086
1806.708984	11300.786133
1805.132813	11333.300781
1803.556641	11394.350586
1801.980469	11450.616211
1800.404297	11573.445313
1798.826172	11393.473633
1797.248047	11633.531250
1795.671875	11577.205078
1794.093750	11541.495117
1792.513672	11727.521484
1790.935547	11544.537109
1789.355469	11652.913086
1787.777344	11636.208008
1786.197266	11591.025391
1784.617188	11710.395508
1783.035156	11529.187500
1781.455078	11765.541992
1779.873047	11736.178711
1778.292969	11708.408203
1776.710938	11789.695313
1775.128906	11837.766602
1773.544922	11980.599609
1771.962891	11940.164063
1770.378906	11816.053711
1768.794922	12009.318359
1767.212891	11801.590820
1765.626953	11947.434570
1764.042969	11993.819336
1762.458984	11880.868164
1760.873047	11974.557617
1759.287109	11948.375977
1757.701172	12059.350586
1756.115234	12055.225586
1754.529297	12183.462891
1752.941406	12237.601563
1751.355469	12186.188477
1749.767578	12211.957031
1748.179688	12240.863281
1746.591797	12455.495117
1745.001953	12300.210938
1743.414063	12365.265625
1741.824219	12424.000977
1740.234375	12407.218750
1738.644531	12495.793945
1737.054688	12570.182617
1735.462891	12498.368164
1733.873047	12557.008789
1732.281250	12739.738281
1730.689453	12691.492188
1729.097656	12729.637695
1727.505859	12767.766602
1725.912109	12780.762695
1724.320313	12834.557617
1722.726563	13151.931641
1721.132813	13084.830078
1719.539063	13102.450195
1717.945313	13051.067383
1716.349609	13137.666016
1714.755859	13299.462891
1713.160156	13520.740234
1711.564453	13342.402344
1709.968750	13659.125977
1708.371094	13700.083984
1706.775391	13604.803711
1705.177734	13877.436523
1703.580078	13840.065430
1701.982422	14211.111328
1700.384766	14168.990234
1698.787109	14502.269531
1697.187500	14578.948242
1695.587891	14800.994141
1693.990234	14968.235352
1692.390625	15240.111328
1690.789063	15296.253906
1689.189453	15649.171875
1687.587891	15876.998047
1685.988281	16134.393555
1684.386719	16318.306641
1682.785156	16371.035156
1681.181641	16724.906250
1679.580078	16652.714844
1677.976563	16605.509766
1676.373047	16829.667969
1674.769531	16916.527344
1673.166016	16685.355469
1671.562500	16814.285156
1669.957031	16642.439453
1668.353516	16847.652344
1666.748047	17062.123047
1665.142578	17222.001953
1663.537109	17305.529297
1661.929688	17345.435547
1660.324219	17620.304688
1658.716797	18203.107422
1657.109375	18222.574219
1655.501953	18571.726563
1653.894531	19018.683594
1652.285156	19536.955078
1650.677734	19958.646484
1649.068359	20361.511719
1647.458984	20785.955078
1645.849609	21539.488281
1644.240234	21713.488281
1642.628906	22381.113281
1641.019531	22467.933594
1639.408203	23024.929688
1637.796875	23465.322266
1636.185547	23835.722656
1634.572266	24354.847656
1632.960938	24726.447266
1631.347656	25274.611328
1629.734375	25958.931641
1628.121094	26587.173828
1626.507813	27238.384766
1624.894531	27915.646484
1623.279297	28416.083984
1621.664063	29582.044922
1620.048828	30250.630859
1618.433594	31130.947266
1616.818359	31948.998047
1615.203125	32977.078125
1613.585938	33944.398438
1611.968750	34906.667969
1610.351563	35367.644531
1608.734375	35823.785156
1607.117188	36440.437500
1605.498047	36859.070313
1603.878906	37478.320313
1602.261719	37964.500000
1600.640625	38882.769531
1599.021484	39039.644531
1597.402344	39052.921875
1595.781250	39326.953125
1594.162109	40153.125000
1592.541016	40287.988281
1590.919922	40876.132813
1589.296875	41319.109375
1587.675781	41746.480469
1586.052734	42441.796875
1584.429688	42272.503906
1582.806641	41950.789063
1581.183594	41490.605469
1579.560547	41039.859375
1577.935547	40455.375000
1576.312500	39931.160156
1574.687500	39497.949219
1573.062500	38764.941406
1571.435547	38539.792969
1569.810547	38004.121094
1568.183594	37497.886719
1566.558594	36913.476563
1564.931641	36346.218750
1563.304688	35894.425781
1561.675781	35504.269531
1560.048828	35157.273438
1558.419922	35252.621094
1556.791016	34809.113281
1555.162109	34712.644531
1553.533203	34643.835938
1551.904297	34352.609375
1550.273438	34414.265625
1548.642578	34195.281250
1547.011719	34178.753906
1545.380859	34255.730469
1543.750000	34433.812500
1542.119141	34233.382813
1540.486328	34006.996094
1538.853516	33990.515625
1537.220703	33944.945313
1535.587891	33879.492188
1533.955078	33469.707031
1532.320313	33470.175781
1530.685547	33551.718750
1529.052734	33449.687500
1527.416016	33289.589844
1525.781250	33320.660156
1524.146484	32923.738281
1522.509766	32750.093750
1520.873047	32306.095703
1519.236328	31784.380859
1517.599609	32006.626953
1515.962891	31404.273438
1514.324219	31264.712891
1512.687500	30940.539063
1511.048828	30999.496094
1509.410156	30590.083984
1507.771484	30363.873047
1506.130859	29643.693359
1504.492188	29466.560547
1502.851563	29129.460938
1501.210938	29135.378906
1499.570313	28757.353516
1497.927734	28735.925781
1496.287109	28496.728516
1494.644531	28409.890625
1493.001953	28030.814453
1491.359375	27732.562500
1489.716797	27985.253906
1488.074219	27805.794922
1486.429688	27752.648438
1484.785156	27906.324219
1483.140625	27772.599609
1481.496094	27813.724609
1479.851563	28056.939453
1478.207031	28000.746094
1476.560547	27526.855469
1474.914063	27496.611328
1473.267578	27751.822266
1471.621094	27370.882813
1469.972656	27428.710938
1468.326172	27289.255859
1466.677734	27498.771484
1465.029297	27630.843750
1463.380859	27923.589844
1461.732422	28319.294922
1460.082031	28161.599609
1458.431641	28455.546875
1456.783203	28347.880859
1455.132813	28490.185547
1453.480469	28328.037109
1451.830078	28527.812500
1450.177734	28346.041016
1448.527344	28061.435547
1446.875000	28025.093750
1445.220703	27947.919922
1443.568359	27870.779297
1441.916016	27819.373047
1440.261719	27492.847656
1438.607422	27151.345703
1436.953125	26689.103516
1435.298828	26583.599609
1433.642578	26411.681641
1431.988281	26259.466797
1430.332031	26448.527344
1428.675781	26232.968750
1427.019531	26527.589844
1425.361328	26319.644531
1423.705078	26688.029297
1422.046875	26780.257813
1420.388672	26914.664063
1418.730469	26963.082031
1417.072266	26915.017578
1415.412109	27251.216797
1413.753906	27356.769531
1412.093750	27188.148438
1410.433594	27394.556641
1408.773438	27873.373047
1407.111328	28293.275391
1405.451172	28318.714844
1403.789063	28634.519531
1402.126953	28267.267578
1400.464844	28145.308594
1398.802734	27963.255859
1397.138672	28155.585938
1395.474609	27644.470703
1393.812500	27938.957031
1392.146484	27745.080078
1390.482422	27319.988281
1388.818359	27446.166016
1387.152344	27539.257813
1385.486328	27570.769531
1383.820313	27611.267578
1382.154297	28167.841797
1380.488281	28623.673828
1378.820313	28263.505859
1377.154297	28513.708984
1375.486328	28712.833984
1373.818359	28367.861328
1372.148438	28716.757813
1370.480469	28464.806641
1368.810547	28434.615234
1367.140625	28486.787109
1365.470703	28032.945313
1363.800781	28212.396484
1362.130859	28218.187500
1360.458984	27821.544922
1358.787109	27939.591797
1357.115234	27887.111328
1355.443359	27629.832031
1353.771484	27312.875000
1352.097656	27445.861328
1350.423828	27726.701172
1348.751953	27507.013672
1347.076172	27971.400391
1345.402344	28468.425781
1343.728516	28612.943359
1342.052734	28845.447266
1340.376953	29297.181641
1338.701172	29808.386719
1337.025391	29570.666016
1335.347656	29790.814453
1333.671875	29873.710938
1331.994141	29971.474609
1330.316406	30231.615234
1328.638672	30138.556641
1326.960938	30023.193359
1325.281250	30306.966797
1323.601563	30234.789063
1321.921875	30259.388672
1320.242188	30252.724609
1318.562500	30466.259766
1316.880859	29845.208984
1315.201172	29752.375000
1313.519531	29374.105469
1311.837891	29306.681641
1310.154297	28569.013672
1308.472656	27952.023438
1306.789063	27555.160156
1305.105469	27407.984375
1303.421875	27090.111328
1301.738281	27009.902344
1300.054688	26741.230469
1298.369141	26904.488281
1296.683594	26816.947266
1294.998047	26839.203125
1293.312500	26478.853516
1291.626953	26520.443359
1289.939453	26052.113281
1288.253906	25881.857422
1286.566406	25579.812500
1284.878906	25298.634766
1283.189453	25004.250000
1281.501953	24840.289063
1279.812500	24790.378906
1278.123047	24707.929688
1276.433594	24640.312500
1274.744141	24657.041016
1273.052734	24999.134766
1271.363281	24486.416016
1269.671875	24754.476563
1267.980469	24753.417969
1266.289063	24415.453125
1264.595703	24659.705078
1262.904297	24550.839844
1261.210938	24149.638672
1259.517578	24014.357422
1257.824219	23681.345703
1256.128906	23755.771484
1254.435547	23542.464844
1252.740234	23329.251953
1251.044922	22881.650391
1249.349609	22785.150391
1247.652344	22476.427734
1245.957031	22685.117188
1244.259766	22307.298828
1242.562500	22028.341797
1240.865234	22039.636719
1239.167969	21740.246094
1237.468750	21554.335938
1235.769531	21422.962891
1234.072266	21253.386719
1232.371094	21333.974609
1230.671875	21046.828125
1228.972656	21143.595703
1227.271484	20788.990234
1225.570313	20785.822266
1223.869141	20725.343750
1222.167969	20694.273438
1220.464844	20654.400391
1218.763672	20736.429688
1217.060547	20577.640625
1215.357422	20777.070313
1213.654297	20707.857422
1211.949219	20508.095703
1210.246094	20375.894531
1208.541016	20215.886719
1206.835938	20143.921875
1205.130859	19838.912109
1203.423828	19846.197266
1201.718750	19941.388672
1200.011719	19872.468750
1198.304688	19664.447266
1196.597656	20056.843750
1194.888672	19929.384766
1193.181641	20132.742188
1191.472656	20150.177734
1189.763672	20221.730469
1188.054688	20278.625000
1186.343750	20317.943359
1184.634766	20306.074219
1182.923828	20501.753906
1181.212891	20413.859375
1179.501953	20267.566406
1177.791016	20292.226563
1176.078125	20040.880859
1174.365234	19688.908203
1172.652344	19529.763672
1170.939453	19567.691406
1169.226563	19270.039063
1167.511719	19151.931641
1165.798828	18810.753906
1164.083984	18565.953125
1162.369141	18147.800781
1160.652344	18139.343750
1158.937500	17862.800781
1157.220703	17873.343750
1155.503906	17543.095703
1153.787109	17341.125000
1152.070313	17204.748047
1150.351563	17131.013672
1148.632813	16951.091797
1146.916016	16835.255859
1145.195313	16725.289063
1143.476563	16541.212891
1141.757813	16538.933594
1140.037109	16413.115234
1138.316406	16072.297852
1136.595703	15923.394531
1134.875000	15729.532227
1133.152344	15662.085938
1131.429688	15500.305664
1129.708984	15541.794922
1127.984375	15616.639648
1126.261719	15463.678711
1124.539063	15403.613281
1122.814453	15004.248047
1121.089844	14909.515625
1119.365234	14882.949219
1117.640625	14899.866211
1115.914063	14563.269531
1114.187500	14449.885742
1112.462891	14214.910156
1110.734375	14302.899414
1109.007813	14146.223633
1107.281250	14085.129883
1105.552734	13982.103516
1103.824219	13815.477539
1102.095703	13702.433594
1100.367188	13660.285156
1098.636719	13824.863281
1096.908203	13609.282227
1095.177734	13523.833984
1093.447266	13724.439453
1091.714844	13416.594727
1089.984375	13440.978516
1088.251953	13264.697266
1086.519531	13244.362305
1084.787109	13365.437500
1083.054688	13283.056641
1081.320313	13132.926758
1079.585938	13154.449219
1077.851563	13217.766602
1076.117188	13234.933594
1074.382813	13203.100586
1072.648438	13272.122070
1070.912109	13328.147461
1069.175781	13116.320313
1067.439453	12962.171875
1065.701172	12993.757813
1063.964844	12728.906250
1062.226563	12684.282227
1060.488281	12472.835938
1058.750000	12185.272461
1057.011719	12252.934570
1055.271484	11981.360352
1053.531250	11865.102539
1051.791016	11781.939453
1050.050781	11757.703125
1048.310547	11980.465820
1046.568359	11868.616211
1044.826172	11801.312500
1043.083984	11841.663086
1041.341797	11916.426758
1039.599609	12104.467773
1037.855469	12032.864258
1036.113281	11977.063477
1034.369141	12124.824219
1032.623047	12226.658203
1030.878906	12122.134766
1029.132813	12139.410156
1027.386719	12135.196289
1025.640625	12106.643555
1023.894531	12059.494141
1022.148438	11909.328125
1020.400391	11998.163086
1018.652344	11848.078125
1016.904297	11985.506836
1015.156250	11999.913086
1013.406250	12022.886719
1011.658203	11905.797852
1009.908203	11894.491211
1008.158203	11837.477539
1006.408203	11747.641602
1004.656250	11796.341797
1002.904297	11779.355469
1001.152344	11716.707031
999.400391	11856.691406
997.648438	11821.155273
995.896484	11680.098633
994.142578	11778.643555
992.388672	11845.780273
990.634766	11778.920898
988.878906	11764.809570
987.125000	11689.449219
985.369141	11498.764648
983.613281	11584.393555
981.857422	11453.606445
980.099609	11593.284180
978.343750	11455.438477
976.585938	11613.541992
974.828125	11381.888672
973.070313	11303.902344
971.310547	11478.986328
969.552734	11403.853516
967.792969	11506.366211
966.033203	11307.670898
964.273438	11431.459961
962.511719	11381.960938
960.750000	11535.484375
958.990234	11434.889648
957.226563	11351.367188
955.464844	11337.392578
953.703125	11310.660156
951.939453	11353.416992
950.175781	11114.048828
948.412109	10937.151367
946.648438	11013.967773
944.882813	10947.669922
943.117188	10955.047852
941.351563	10910.031250
939.585938	10934.400391
937.820313	10735.137695
936.052734	10615.206055
934.285156	10783.917969
932.517578	10816.775391
930.750000	10892.036133
928.982422	10680.286133
927.212891	10891.222656
925.443359	10768.587891
923.673828	10801.405273
921.904297	10719.805664
920.132813	10658.010742
918.361328	10583.538086
916.591797	10674.229492
914.818359	10711.258789
913.046875	10753.912109
911.275391	10632.939453
909.501953	10747.501953
907.728516	10660.417969
905.955078	10738.274414
904.179688	10549.777344
902.406250	10498.016602
900.630859	10354.730469
898.855469	10438.213867
897.080078	10166.899414
895.302734	10295.423828
893.525391	10336.645508
891.750000	10200.592773
889.970703	10193.996094
888.193359	10239.428711
886.416016	10104.896484
884.636719	10136.271484
882.857422	10058.029297
881.078125	10149.806641
879.296875	10049.124023
877.517578	9893.725586
875.736328	10162.356445
873.955078	10012.615234
872.173828	9888.201172
870.390625	9912.545898
868.609375	9985.966797
866.826172	9790.130859
865.042969	9936.441406
863.259766	9882.261719
861.474609	9870.143555
859.689453	9684.319336
857.904297	9645.640625
856.119141	9783.407227
854.333984	9720.922852
852.546875	9683.659180
850.761719	9625.422852
848.974609	9740.678711
847.185547	9639.098633
845.398438	9775.269531
843.609375	9837.285156
841.822266	9738.545898
840.031250	9866.211914
838.242188	9908.602539
836.453125	9830.862305
834.662109	9874.635742
832.871094	9907.219727
831.080078	9689.966797
829.289063	9716.996094
827.496094	9803.996094
825.703125	9789.143555
823.910156	9746.411133
822.117188	9618.663086
820.324219	9594.105469
818.529297	9538.905273
816.734375	9539.451172
814.939453	9358.945313
813.144531	9561.425781
811.347656	9456.167969
809.550781	9626.518555
807.755859	9606.167969
805.957031	9580.261719
804.160156	9438.935547
802.361328	9500.674805
800.564453	9441.446289
798.765625	9337.773438
796.964844	9378.648438
795.166016	9497.293945
793.365234	9524.222656
791.564453	9274.836914
789.763672	9668.267578
787.962891	9481.414063
786.160156	9581.853516
784.359375	9431.172852
782.556641	9526.027344
780.751953	9202.118164
778.949219	9439.754883
777.144531	9315.576172
775.339844	9209.466797
773.535156	9305.643555
771.730469	9250.824219
769.925781	9294.332031
768.119141	9523.300781
766.312500	9550.115234
764.505859	9370.767578
762.697266	9332.591797
760.890625	9454.849609
759.082031	9424.965820
757.273438	9462.825195
755.464844	9775.667969
753.654297	9904.609375
751.845703	10044.540039
750.035156	10703.634766
748.224609	10978.607422
746.412109	11587.478516
744.601563	12087.043945
742.789063	12154.547852
740.976563	12412.362305
739.164063	13174.759766
737.349609	13687.259766
735.537109	14805.978516
733.722656	15818.061523
731.908203	16414.984375
730.091797	16143.894531
728.277344	15251.894531
726.460938	13802.752930
724.644531	12359.801758
722.828125	11470.703125
721.009766	10654.936523
719.193359	10248.047852
717.375000	9867.476563
715.556641	9592.939453
713.736328	9557.680664
711.917969	9397.395508
710.097656	9264.660156
708.277344	9267.958008
706.457031	9344.027344
704.636719	9225.125000
702.814453	9141.961914
700.992188	9017.673828
699.169922	9121.164063
697.347656	9105.284180
695.523438	9301.942383
693.699219	9202.405273
691.875000	9316.713867
690.050781	9432.338867
688.226563	9604.071289
686.400391	9734.634766
684.574219	9739.168945
682.748047	9754.651367
680.921875	9610.004883
679.095703	9703.498047
677.267578	9527.468750
675.439453	9584.010742
673.611328	9647.361328
671.781250	9507.007813
669.953125	9478.782227
668.123047	9522.982422
666.292969	9549.403320
664.460938	9558.057617
662.630859	9520.286133
660.798828	9437.488281
658.966797	9413.408203
657.134766	9382.517578
655.302734	9448.486328
653.468750	9473.510742
651.634766	9584.415039
649.800781	9762.054688
647.966797	9851.032227
646.130859	10035.333984
644.294922	10037.030273
642.458984	10124.515625
640.623047	9961.457031
638.787109	9916.890625
636.949219	9943.104492
635.111328	10015.560547
633.273438	9878.522461
631.435547	9896.565430
629.595703	9929.553711
627.757813	9879.617188
625.917969	9760.403320
624.076172	9711.887695
622.236328	9513.996094
620.394531	9438.404297
618.552734	9423.935547
616.710938	9101.388672
614.869141	9285.110352
613.025391	9133.674805
611.183594	9200.664063
609.339844	9018.132813
607.494141	8987.514648
605.650391	8779.370117
603.804688	8877.541016
601.958984	8882.195313
600.113281	8968.104492
598.267578	8902.327148
596.419922	8707.984375
594.572266	8732.971680
592.724609	8744.416992
590.876953	8671.990234
589.027344	8625.291992
587.179688	8455.580078
585.330078	8398.140625
583.480469	8443.433594
581.628906	8484.650391
579.779297	8332.691406
577.927734	8325.298828
576.076172	8432.666992
574.222656	8442.799805
572.371094	8531.195313
570.517578	8645.180664
568.664063	8679.532227
566.810547	8779.942383
564.955078	8632.242188
563.101563	8888.962891
561.246094	8903.007813
559.390625	8859.116211
557.533203	8819.286133
555.677734	8615.195313
553.820313	8539.092773
551.962891	8423.995117
550.105469	8372.193359
548.246094	8210.105469
546.386719	8292.872070
544.527344	8366.186523
542.667969	8274.118164
540.808594	8198.219727
538.947266	8393.774414
537.085938	8419.976563
535.224609	8303.805664
533.363281	8225.286133
531.500000	8164.253418
529.638672	7989.175781
527.775391	8212.672852
525.910156	8264.363281
524.046875	8353.578125
522.181641	8771.235352
520.316406	9082.797852
518.451172	8939.911133
516.585938	8417.930664
514.718750	8295.362305
512.851563	8230.435547
510.984375	8066.466309
509.117188	8178.308105
507.250000	8169.658691
505.380859	8098.133301
503.511719	8124.282227
501.642578	8187.860840
499.771484	8070.925293
497.902344	7960.728516
496.031250	8022.962891
494.160156	7971.610840
492.287109	7941.652832
490.416016	8086.634766
488.542969	8071.347168
486.669922	7981.325684
484.796875	7896.683594
482.921875	7978.835938
481.046875	7780.868652
479.171875	7864.341309
477.296875	7763.809570
475.421875	7812.594238
473.544922	7942.632813
471.667969	7923.412109
469.791016	7794.993164
467.914063	7822.417480
466.035156	7928.366699
464.156250	7820.000000
462.277344	7932.550293
460.398438	7760.383789
458.519531	7729.266602
456.638672	7642.322266
454.757813	7857.157227
452.876953	7816.735352
450.994141	7743.117188
449.113281	7923.236816
447.230469	7850.955566
445.347656	7939.354492
443.462891	7969.307617
441.580078	7983.321777
439.695313	8063.663574
437.810547	8037.855957
435.925781	8156.601074
434.039063	8034.003418
432.152344	7967.131836
430.267578	7955.946777
428.378906	7967.287598
426.492188	7986.569824
424.603516	7926.392578
422.714844	7977.446289
420.826172	7890.829102
418.937500	8055.661621
417.046875	8010.075684
415.158203	8162.896484
413.265625	8067.060059
411.375000	7992.420410
409.484375	8138.526367
407.591797	7970.091797
405.699219	7899.490723
403.806641	7803.830078
401.912109	7993.411133
400.019531	7831.770996
