#Wave		#Intensity
1585.210938	5025.263672
1584.209961	5032.756348
1583.208984	4996.753906
1582.208008	5100.576172
1581.206055	5136.960938
1580.204102	5105.949707
1579.202148	5089.921875
1578.200195	5026.503906
1577.198242	5165.127930
1576.195313	5009.460449
1575.192383	5093.184570
1574.189453	5117.054199
1573.186523	4986.412598
1572.182617	5012.785645
1571.178711	5001.783691
1570.174805	4995.767090
1569.170898	5027.101074
1568.166992	5065.890137
1567.162109	4922.975586
1566.158203	4934.397949
1565.153320	5017.962402
1564.147461	4870.171387
1563.142578	5045.726074
1562.136719	4950.202148
1561.130859	4979.006348
1560.125000	4918.329102
1559.119141	4919.795410
1558.113281	4866.607910
1557.106445	4910.307129
1556.099609	4916.740234
1555.092773	4980.271973
1554.084961	4872.507324
1553.078125	4931.058105
1552.070313	4880.414063
1551.062500	4829.791016
1550.054688	4940.396484
1549.045898	4800.515625
1548.038086	4888.769043
1547.029297	4994.335938
1546.020508	4933.828125
1545.011719	4823.794434
1544.001953	4852.520020
1542.992188	4849.039063
1541.982422	4882.699219
1540.972656	4859.408691
1539.962891	4799.002930
1538.952148	4926.682129
1537.942383	4923.187988
1536.931641	4833.124512
1535.919922	4725.787598
1534.909180	4848.430664
1533.897461	4837.539063
1532.886719	4836.537598
1531.874023	4835.536133
1530.862305	4777.716309
1529.850586	4722.389648
1528.837891	4872.042969
1527.825195	4873.502930
1526.812500	4872.493652
1525.799805	4935.648438
1524.786133	4885.280273
1523.772461	4894.135742
1522.758789	4782.139160
1521.745117	4909.369629
1520.731445	4863.978027
1519.716797	4712.620605
1518.702148	4829.928711
1517.687500	4789.508789
1516.672852	4960.942871
1515.657227	4927.900391
1514.642578	5074.612305
1513.626953	4896.318848
1512.610352	4934.684082
1511.594727	4864.762695
1510.579102	4878.516113
1509.562500	4761.901855
1508.545898	4790.425293
1507.529297	4986.124512
1506.511719	4884.308105
1505.494141	4959.482910
1504.477539	4936.341309
1503.458984	4920.579102
1502.441406	4914.647949
1501.423828	5031.498047
1500.405273	5089.377441
1499.386719	4953.321777
1498.368164	4935.117188
1497.348633	4975.804688
1496.330078	4942.884277
1495.310547	4826.590820
1494.291016	4982.520508
1493.271484	4915.297363
1492.250977	4919.180664
1491.231445	4923.062012
1490.210938	4880.392090
1489.190430	4901.425781
1488.168945	4878.369141
1487.148438	4845.527832
1486.126953	4893.482910
1485.105469	4814.149902
1484.083984	4915.923828
1483.061523	4795.029297
1482.040039	4776.913574
1481.017578	4824.832031
1479.995117	4938.742676
1478.971680	4942.607910
1477.949219	4909.812012
1476.925781	4867.256348
1475.902344	4929.762207
1474.878906	4987.357422
1473.855469	4930.159668
1472.831055	4836.364746
1471.806641	4940.319336
1470.782227	5093.037109
1469.757813	4957.788574
1468.733398	4954.320801
1467.708008	4906.955078
1466.682617	5001.032227
1465.657227	5012.184082
1464.631836	5025.768066
1463.605469	4958.931152
1462.579102	5057.791016
1461.552734	5154.173828
1460.526367	5196.939453
1459.500000	5057.077148
1458.472656	5114.450684
1457.445313	5123.124512
1456.417969	5085.561523
1455.390625	5225.606934
1454.362305	5149.121582
1453.334961	5099.417480
1452.306641	5078.908203
1451.277344	5126.468750
1450.249023	5256.638184
1449.219727	5192.373047
1448.191406	5210.728516
1447.162109	5277.650879
1446.131836	5169.712402
1445.102539	5294.880371
1444.072266	5284.071777
1443.041992	5239.292969
1442.011719	5063.516602
1440.981445	5222.561523
1439.950195	5267.555176
1438.918945	5288.282715
1437.887695	5253.245117
1436.856445	5312.745605
1435.825195	5326.180664
1434.792969	5128.835449
1433.760742	5413.586914
1432.728516	5184.823242
1431.696289	5224.905273
1430.663086	5158.460449
1429.629883	5089.623047
1428.596680	5069.207031
1427.563477	5082.667969
1426.530273	5110.634766
1425.496094	5049.117676
1424.461914	4934.437012
1423.427734	4911.656250
1422.393555	4937.217285
1421.358398	4774.308105
1420.323242	4862.693359
1419.288086	4922.060059
1418.252930	5189.060547
1417.217773	4953.809082
1416.181641	5071.045898
1415.145508	4939.680664
1414.109375	4926.589355
1413.073242	4841.138672
1412.036133	4816.014648
1411.000000	5003.079102
1409.962891	4893.559082
1408.924805	5029.916504
1407.887695	5105.976074
1406.849609	4912.183105
1405.812500	4932.837402
1404.773438	5028.133789
1403.735352	5012.640137
1402.697266	4968.267578
1401.658203	4967.231934
1400.619141	4930.104980
1399.580078	4873.748535
1398.540039	4918.429199
1397.500977	4943.854004
1396.460938	4930.802734
1395.420898	4908.142090
1394.380859	4907.118164
1393.339844	4901.289551
1392.298828	4953.112793
1391.257813	4807.983887
1390.216797	4847.799316
1389.175781	4909.202637
1388.133789	4848.176270
1387.091797	4981.541016
1386.049805	4932.519531
1385.007813	4746.798828
1383.964844	4856.119629
1382.922852	4912.647461
1381.879883	4791.767090
1380.835938	4944.147949
1379.792969	4921.550293
1378.749023	5009.158691
1377.706055	4854.827148
1376.661133	4940.017578
1375.617188	4922.226563
1374.573242	4873.326172
1373.528320	4999.141113
1372.483398	4957.421875
1371.438477	4810.468750
1370.392578	4972.090332
1369.347656	5057.129395
1368.301758	4929.371582
1367.255859	4899.659668
1366.208984	4855.622070
1365.163086	4866.551758
1364.116211	4889.419434
1363.069336	4835.858398
1362.022461	4916.024414
1360.974609	4838.608887
1359.927734	4789.864258
1358.879883	4886.690918
1357.832031	4902.366699
1356.783203	5011.054199
1355.735352	4852.622559
1354.686523	4932.664551
1353.637695	4821.986816
1352.588867	4863.872070
1351.539063	4841.409668
1350.490234	4897.565430
1349.440430	4856.052246
1348.390625	4862.177734
1347.339844	4901.628418
1346.290039	5033.885742
1345.239258	4892.434570
1344.188477	4924.715820
1343.137695	4883.247070
1342.085938	4979.724609
1341.034180	5011.966309
1339.982422	5018.045898
1338.930664	5062.148438
1337.878906	4906.639648
1336.826172	5050.521484
1335.773438	4937.831543
1334.720703	5019.906250
1333.667969	5078.204590
1332.614258	4929.975098
1331.561523	4988.267090
1330.507813	5160.419922
1329.453125	5059.707031
1328.399414	5193.826172
1327.344727	4965.107910
1326.290039	5037.553711
1325.235352	4894.288086
1324.180664	4921.694336
1323.125000	5015.424316
1322.070313	4959.891602
1321.014648	5084.359375
1319.958008	4957.805664
1318.902344	4954.395996
1317.845703	4936.787109
1316.789063	5101.377930
1315.732422	4993.850586
1314.675781	4973.878906
1313.618164	5001.207520
1312.560547	5059.258301
1311.502930	5084.192871
1310.445313	5019.317383
1309.386719	5041.886719
1308.329102	5007.754883
1307.270508	5042.124512
1306.210938	5116.619141
1305.152344	5132.065918
1304.092773	4991.734863
1303.033203	5066.191895
1301.973633	5152.413086
1300.914063	5196.141113
1299.853516	5039.406250
1298.792969	4988.832520
1297.732422	5027.852539
1296.671875	5019.721680
1295.611328	5098.772461
1294.549805	4942.221680
1293.488281	5108.396973
1292.426758	4853.012207
1291.364258	5059.156738
1290.302734	4973.355469
1289.240234	4922.888184
1288.177734	4952.433594
1287.114258	4791.437500
1286.051758	4945.638184
1284.988281	4796.466797
1283.924805	4894.183105
1282.861328	4961.305176
1281.796875	4802.825195
1280.732422	4839.397461
1279.667969	4793.748047
1278.603516	4884.315430
1277.539063	4718.940918
1276.473633	4908.068848
1275.408203	4831.935059
1274.342773	4931.800781
1273.277344	4731.368652
1272.210938	4753.819824
1271.145508	4914.601074
1270.079102	4871.364258
1269.011719	4814.082520
1267.945313	4841.181641
1266.877930	4816.728516
1265.810547	4820.392578
1264.743164	4814.687988
1263.674805	4720.016113
1262.607422	4754.127441
1261.539063	4804.605957
1260.470703	4834.004395
1259.401367	4673.907715
1258.333008	4796.872559
1257.263672	4725.706055
1256.194336	4806.526367
1255.125000	4826.542480
1254.054688	4834.865234
1252.985352	4766.085938
1251.915039	4704.342773
1250.843750	4715.020508
1249.773438	4884.461914
1248.702148	4808.726074
1247.630859	4796.035156
1246.559570	4687.682617
1245.488281	4616.701172
1244.416016	4776.651855
1243.343750	4735.995117
1242.271484	4737.319824
1241.199219	4775.937012
1240.125977	4642.090332
1239.053711	4848.461914
1237.980469	4665.739258
1236.906250	4704.337402
1235.833008	4859.337891
1234.758789	4809.417969
1233.684570	4736.245117
1232.610352	4595.623047
1231.536133	4752.839844
1230.460938	4772.760742
1229.385742	4753.140625
1228.310547	4852.099609
1227.235352	4681.382813
1226.159180	4685.033203
1225.083008	4802.529297
1224.006836	4717.879883
1222.930664	4682.037598
1221.853516	4685.682617
1220.777344	4731.112305
1219.700195	4771.880371
1218.622070	4736.055176
1217.544922	4709.524902
1216.466797	4631.977539
1215.388672	4596.204102
1214.310547	4639.273926
1213.232422	4649.873047
1212.153320	4859.771484
1211.074219	4740.566895
1209.995117	4637.627930
1208.916016	4578.736816
1207.835938	4756.052734
1206.755859	4708.735840
1205.675781	4589.688477
1204.595703	4607.219238
1203.514648	4638.623535
1202.434570	4679.266113
1201.353516	4717.578125
1200.271484	4621.774902
1199.190430	4752.543945
1198.108398	4564.331543
1197.026367	4618.807617
1195.944336	4664.020020
1194.862305	4699.974121
1193.779297	4622.768066
1192.696289	4649.480957
1191.613281	4563.085449
1190.530273	4608.259277
1189.446289	4579.586426
1188.362305	4707.774414
1187.278320	4653.724609
1186.194336	4622.753418
1185.109375	4658.644043
1184.024414	4611.552246
1182.939453	4589.825684
1181.854492	4704.021973
1180.768555	4638.524414
1179.683594	4547.725586
1178.597656	4608.907227
1177.510742	4635.537598
1176.424805	4577.012695
1175.337891	4612.840332
1174.250977	4673.953613
1173.164063	4574.062988
1172.077148	4635.157715
1170.989258	4595.083984
1169.901367	4509.062500
1168.813477	4533.367676
1167.724609	4651.847168
1166.636719	4671.517090
1165.547852	4608.513672
1164.458984	4513.397461
1163.369141	4606.530273
1162.280273	4506.865234
1161.190430	4599.958496
1160.100586	4459.049316
1159.010742	4568.165039
1157.919922	4500.690918
1156.829102	4534.104980
1155.738281	4446.040527
1154.647461	4564.228516
1153.555664	4538.045898
1152.464844	4644.711426
1151.373047	4536.089355
1150.280273	4699.940430
1149.188477	4664.594238
1148.095703	4629.263184
1147.002930	4667.157227
1145.910156	4592.955078
1144.817383	4669.715820
1143.723633	4620.694336
1142.629883	4722.559570
1141.536133	4538.710938
1140.441406	4638.264160
1139.347656	4609.849609
1138.252930	4544.904785
1137.158203	4557.622559
1136.062500	4663.933105
1134.967773	4589.887695
1133.872070	4650.506348
1132.776367	4551.399902
1131.679688	4623.404297
1130.583984	4683.975098
1129.487305	4728.559570
1128.390625	4725.256836
1127.292969	4692.328613
1126.196289	4773.336426
1125.098633	4703.963867
1124.000977	4855.534180
1122.903320	4670.048340
1121.804688	4616.677246
1120.706055	4599.745117
1119.607422	4546.411621
1118.508789	4731.974609
1117.409180	4539.891113
1116.310547	4591.208496
1115.210938	4644.776367
1114.110352	4673.317871
1113.010742	4583.675293
1111.910156	4548.599609
1110.809570	4595.314453
1109.708984	4539.811523
1108.607422	4593.318359
1107.506836	4501.518555
1106.405273	4636.714355
1105.303711	4529.060547
1104.201172	4655.116211
1103.098633	4606.474609
1101.996094	4544.248047
1100.893555	4609.005371
1099.791016	4583.070313
1098.687500	4593.403809
1097.583984	4635.451172
1096.480469	4765.819336
1095.376953	4558.700684
1094.272461	4670.915039
1093.167969	4683.479492
1092.063477	4666.617676
1090.958008	4586.407715
1089.853516	4574.097656
1088.748047	4634.166016
1087.642578	4608.283203
1086.536133	4661.535156
1085.430664	4800.650879
1084.324219	4571.374023
1083.217773	4588.450684
1082.110352	4668.763184
1081.003906	4536.767578
1079.896484	4565.128418
1078.789063	4570.903320
1077.680664	4639.864746
1076.573242	4681.720215
1075.464844	4631.070801
1074.356445	4621.038574
1073.247070	4651.595703
1072.138672	4600.984863
1071.029297	4649.562500
1069.919922	4738.678223
1068.809570	4688.080566
1067.700195	4623.990723
1066.589844	4650.000977
1065.479492	4561.182129
1064.368164	4566.936523
1063.257813	4700.957520
1062.146484	4686.429199
1061.035156	4608.925293
1059.922852	4679.879883
1058.811523	4570.933105
1057.699219	4599.154297
1056.586914	4568.930664
1055.473633	4592.645508
1054.361328	4681.494629
1053.248047	4716.402832
1052.134766	4499.809082
1051.021484	4689.640625
1049.907227	4713.300781
1048.792969	4611.289551
1047.678711	4592.330566
1046.564453	4582.350586
1045.449219	4505.101563
1044.333984	4605.000977
1043.218750	4554.677246
1042.103516	4719.509766
1040.987305	4534.752930
1039.871094	4598.716309
1038.754883	4503.646973
1037.638672	4639.236816
1036.521484	4647.170898
1035.404297	4612.579102
1034.287109	4553.388672
1033.169922	4563.572266
1032.051758	4560.332031
1030.933594	4507.899414
1029.815430	4551.618652
1028.697266	4747.303711
1027.578125	4536.207520
1026.458984	4570.954102
1025.339844	4520.808105
1024.220703	4515.346191
1023.100586	4619.284668
1021.980469	4562.463379
1020.860352	4612.785645
1019.740234	4567.145996
1018.619141	4570.600586
1017.498047	4589.664063
1016.376953	4452.642090
1015.255859	4485.097656
1014.133789	4497.479980
1013.011719	4458.608398
1011.889648	4535.593750
1010.767578	4552.410156
1009.644531	4533.591309
1008.521484	4465.803711
1007.398438	4426.979492
1006.274414	4497.209473
1005.151367	4396.102051
1004.027344	4550.828613
1002.902344	4556.494141
1001.778320	4479.895508
1000.653320	4498.909668
999.528320	4449.024414
998.403320	4483.589355
997.278320	4533.687012
996.152344	4483.826172
995.026367	4553.884277
993.900391	4557.315918
992.773438	4518.578125
991.646484	4550.860352
990.519531	4567.599121
989.392578	4480.090332
988.265625	4547.836426
987.137695	4584.515625
986.009766	4508.142090
984.881836	4544.813477
983.752930	4475.127930
982.624023	4613.675293
981.495117	4444.355469
980.366211	4565.136230
979.236328	4548.628906
978.106445	4611.795410
976.976563	4524.485840
975.846680	4390.762695
974.715820	4557.860352
973.585938	4510.417480
972.454102	4591.204102
971.323242	4534.934082
970.191406	4507.412109
969.060547	4683.132324
967.927734	4549.579102
966.795898	4539.735840
965.663086	4649.104004
964.530273	4632.620605
963.397461	4609.524414
962.264648	4575.407715
961.130859	4534.688965
959.997070	4624.088379
958.863281	4565.739746
957.729492	4688.153320
956.594727	4607.778809
955.459961	4608.956055
954.325195	4539.647461
953.189453	4551.848633
952.053711	4625.690918
950.917969	4666.482422
949.782227	4720.458984
948.646484	4609.396973
947.509766	4529.180176
946.373047	4602.942871
945.235352	4571.134277
944.098633	4609.682617
942.960938	4672.388184
941.823242	4502.157227
940.685547	4606.596680
939.546875	4572.624023
938.408203	4532.079102
937.269531	4645.221680
936.129883	4418.120117
934.991211	4544.402832
933.851563	4753.993164
932.711914	4601.591309
931.571289	4648.805176
930.431641	4720.112793
929.291016	4622.616211
928.149414	4608.434082
927.008789	4732.282715
925.867188	4715.891113
924.725586	4539.644531
923.583984	4545.196777
922.441406	4500.401367
921.299805	4569.422852
920.157227	4725.930664
919.013672	4573.938965
917.871094	4708.505371
916.727539	4558.770996
915.583984	4562.121582
914.439453	4613.550293
913.295898	4573.186523
912.151367	4543.762695
911.006836	4697.808594
909.861328	4519.889648
908.716797	4610.562988
907.571289	4661.909668
906.424805	4765.602051
905.279297	4705.630371
904.132813	4606.426270
902.986328	4701.337402
901.839844	4713.362305
900.692383	4694.867188
899.545898	4687.275391
898.398438	4618.685059
897.250000	4661.209961
896.102539	4827.840820
894.954102	4717.897949
893.805664	4671.127441
892.656250	4802.823730
891.507813	4838.730469
890.358398	4704.955078
889.208984	4645.179688
888.058594	4694.141602
886.908203	4693.084961
885.758789	4633.351563
884.607422	4634.480957
883.457031	4592.164551
882.305664	4695.375977
881.154297	4666.091797
880.002930	4584.721191
878.850586	4666.160156
877.698242	4532.749512
876.545898	4635.855957
875.393555	4539.381836
874.240234	4521.011719
873.086914	4654.399902
871.933594	4681.526367
870.780273	4515.787109
869.625977	4629.587402
868.471680	4591.722656
867.317383	4649.152832
866.162109	4635.113770
865.007813	4588.614258
863.852539	4596.233887
862.696289	4618.994629
861.541016	4566.040039
860.384766	4599.608398
859.228516	4501.279297
858.072266	4627.791504
856.915039	4624.584473
855.757813	4569.525879
854.600586	4542.572266
853.442383	4625.768066
852.285156	4549.154785
851.126953	4619.358887
849.968750	4601.049316
848.809570	4472.709961
847.650391	4555.825684
846.491211	4449.119629
845.332031	4614.135254
844.171875	4735.962891
843.012695	4558.167480
841.851563	4578.682129
840.691406	4590.570313
839.530273	4537.841797
838.369141	4495.902832
837.208008	4540.091309
836.046875	4597.172852
834.884766	4550.943848
833.722656	4549.912598
832.560547	4490.810059
831.397461	4558.601074
830.234375	4540.368652
829.071289	4605.967285
827.908203	4568.392578
826.744141	4517.944336
825.580078	4488.997070
824.416016	4470.799316
823.251953	4577.128418
822.086914	4533.161621
820.921875	4487.068359
819.756836	4498.921875
818.590820	4379.929199
817.425781	4541.911133
816.259766	4504.432129
815.092773	4505.552246
813.926758	4575.246582
812.759766	4347.103027
811.592773	4395.380859
810.424805	4490.749512
809.257813	4423.356445
808.089844	4394.523438
806.920898	4474.846191
805.752930	4544.433594
804.583984	4481.366211
803.415039	4463.237793
802.246094	4363.869629
801.076172	4454.793457
799.906250	4413.173828
798.736328	4410.032715
797.566406	4483.793945
796.395508	4425.109375
795.224609	4545.807129
794.053711	4273.665039
792.881836	4462.635742
791.710938	4423.211914
790.538086	4411.537598
789.366211	4440.390625
788.194336	4492.685059
787.021484	4527.900879
785.848633	4458.666992
784.674805	4532.228516
783.500977	4499.239746
782.327148	4483.304688
781.153320	4522.739258
779.979492	4406.748535
778.804688	4463.208984
777.629883	4445.167480
776.454102	4482.445801
775.279297	4413.360840
774.103516	4425.111816
772.927734	4434.730957
771.750977	4427.341797
770.575195	4453.955078
769.398438	4448.688477
768.220703	4394.571777
767.043945	4512.484863
765.866211	4515.699707
764.688477	4395.804199
763.510742	4409.653809
762.332031	4508.359863
761.153320	4405.516602
759.974609	4402.388184
758.794922	4551.910156
757.616211	4506.356445
756.436523	4450.227539
755.255859	4440.734375
754.076172	4488.436523
752.895508	4489.526855
751.714844	4429.217285
750.533203	4459.954102
749.352539	4507.606445
748.170898	4527.731934
746.988281	4571.115723
745.806641	4542.576660
744.624023	4467.535156
743.441406	4559.520020
742.258789	4634.555664
741.075195	4527.850586
739.891602	4636.656250
738.708008	4612.362793
737.523438	4657.756348
736.339844	4762.234375
735.155273	4744.258789
733.969727	4848.668457
732.785156	4893.964844
731.599609	4939.239746
730.414063	4908.587402
729.227539	4905.353516
728.041992	4836.786621
726.855469	4734.538574
725.667969	4752.411133
724.481445	4677.606934
723.293945	4674.427734
722.106445	4551.257813
720.918945	4665.967773
719.730469	4483.939453
718.541992	4510.257324
717.353516	4582.832520
716.164063	4352.585449
714.975586	4465.104980
713.786133	4419.942871
712.595703	4452.547363
711.406250	4417.911621
710.215820	4538.712402
709.025391	4413.781250
707.833984	4347.687500
706.642578	4315.205078
705.451172	4347.786621
704.259766	4436.995117
703.068359	4442.266602
701.875977	4451.729492
700.683594	4406.680664
699.490234	4499.983887
698.297852	4406.748535
697.104492	4552.382813
695.910156	4528.295410
694.716797	4464.433105
693.522461	4438.282715
692.328125	4430.981934
691.132813	4549.238281
689.938477	4380.823730
688.743164	4350.532715
687.547852	4387.170898
686.351563	4384.069824
685.155273	4529.370605
683.958984	4494.892578
682.762695	4456.251465
681.565430	4459.401855
680.368164	4437.492188
679.170898	4369.661621
677.973633	4487.628418
676.775391	4517.895996
675.577148	4389.589844
674.378906	4513.727539
673.179688	4581.502930
671.980469	4570.021973
670.781250	4460.580078
669.581055	4592.921387
668.381836	4654.364746
667.181641	4707.447266
665.980469	4654.299805
664.780273	4674.045898
663.579102	4718.760254
662.377930	4634.430664
661.175781	4849.737305
659.973633	4844.457520
658.771484	4807.986816
657.569336	4711.238281
656.367188	4712.229004
655.164063	4777.641602
653.960938	4768.228027
652.756836	4827.365234
651.552734	4757.719238
650.348633	4883.269531
649.144531	4848.929688
647.939453	4816.680664
646.735352	4747.100586
645.529297	4770.895020
644.324219	4682.692383
643.118164	4793.570801
641.912109	4690.892578
640.706055	4801.717285
639.499023	4692.868652
638.292969	4604.783691
637.084961	4591.293457
635.877930	4666.839844
634.669922	4564.331055
633.461914	4571.553711
632.253906	4667.741211
631.044922	4612.879395
629.836914	4415.345215
628.626953	4678.977051
627.417969	4533.196289
626.208008	4478.415039
624.998047	4609.613281
623.788086	4505.262695
622.577148	4442.264160
621.366211	4342.128906
620.155273	4458.786621
618.944336	4472.201172
617.732422	4483.545898
616.520508	4550.581543
615.308594	4512.406250
614.095703	4410.330078
612.882813	4551.544922
611.669922	4478.359375
610.457031	4434.053711
609.243164	4533.964844
608.029297	4456.714355
606.815430	4428.915039
605.600586	4458.767578
604.385742	4389.819336
603.170898	4485.508301
601.955078	4478.298340
600.740234	4429.958496
599.524414	4410.427246
598.307617	4462.853027
597.091797	4348.783203
595.875000	4450.511719
594.658203	4480.293945
593.440430	4399.159180
592.222656	4441.258789
591.004883	4432.018555
589.787109	4377.630371
588.568359	4325.319336
587.349609	4312.008789
586.130859	4456.623535
584.912109	4400.229004
583.692383	4411.508789
582.472656	4420.733398
581.251953	4343.895508
580.032227	4433.023926
578.811523	4358.266113
577.589844	4359.303223
576.369141	4458.600586
575.147461	4396.167480
573.925781	4464.717773
572.703125	4441.179688
571.481445	4341.979492
570.258789	4490.238281
569.035156	4413.559082
567.812500	4447.279785
566.588867	4433.988770
565.365234	4371.674805
564.140625	4468.694336
562.916992	4537.082031
561.692383	4425.792969
560.466797	4361.497070
559.242188	4456.387207
558.016602	4449.233398
556.791016	4568.532715
555.564453	4412.504883
554.337891	4431.866699
553.111328	4504.210449
551.884766	4566.331543
550.657227	4369.704590
549.429688	4474.598145
548.202148	4532.609863
546.974609	4425.699707
545.746094	4504.047852
544.517578	4454.167480
543.288086	4381.932617
542.058594	4513.115723
540.829102	4508.001465
539.599609	4431.737305
538.370117	4491.681641
537.139648	4423.584473
535.909180	4578.982422
534.677734	4573.857422
533.446289	4538.276367
532.214844	4535.192871
530.983398	4526.021484
529.750977	4553.378418
528.519531	4525.948730
527.286133	4537.067383
526.053711	4550.208008
524.820313	4526.851563
523.586914	4795.362305
522.353516	4615.934082
521.119141	4699.947266
519.884766	4632.019043
518.650391	4610.694336
517.415039	4666.308105
516.179688	4462.828613
514.944336	4546.778809
513.708984	4519.423828
