#Wave		#Intensity
2109.224609	5008.213379
2107.712891	4988.365723
2106.201172	4931.064453
2104.687500	4994.475098
2103.175781	5090.916504
2101.662109	4954.308105
2100.150391	5085.412109
2098.636719	4967.034180
2097.123047	5013.854492
2095.607422	4953.332031
2094.093750	5031.499023
2092.578125	4982.552246
2091.064453	5070.579590
2089.548828	5036.492188
2088.033203	4990.874512
2086.517578	4971.660156
2085.000000	5043.127930
2083.484375	4873.918457
2081.966797	4979.982910
2080.449219	4987.147949
2078.931641	5012.429688
2077.414063	5115.102051
2075.894531	4906.543457
2074.376953	4997.671387
2072.857422	4948.869141
2071.337891	4883.633301
2069.818359	5020.769531
2068.298828	5016.400879
2066.777344	5031.766602
2065.257813	5019.177246
2063.736328	4996.731934
2062.214844	5133.696777
2060.693359	4838.505371
2059.171875	4885.102539
2057.648438	4941.532715
2056.126953	4910.918457
2054.603516	5023.131348
2053.080078	4967.895020
2051.556641	5073.484375
2050.033203	4908.347656
2048.507813	4984.382324
2046.984375	5060.384277
2045.458984	4954.375977
2043.933594	5046.742676
2042.408203	5011.248535
2040.882813	5054.412109
2039.355469	5068.072266
2037.830078	4927.784668
2036.302734	4920.180664
2034.775391	4925.676270
2033.248047	4976.994629
2031.718750	5074.106934
2030.191406	5033.759766
2028.662109	4936.184570
2027.134766	4993.997559
2025.605469	4938.979492
2024.076172	5001.670898
2022.544922	4941.771973
2021.015625	4971.759277
2019.484375	4960.896484
2017.955078	5051.292969
2016.423828	4931.020996
2014.892578	4912.011719
2013.359375	4901.170898
2011.828125	5002.925293
2010.294922	4931.708008
2008.761719	5054.615723
2007.230469	4972.002930
2005.695313	4917.141113
2004.162109	5020.413086
2002.628906	5014.454102
2001.093750	4969.394043
1999.558594	5038.380859
1998.023438	4994.963379
1996.488281	4927.140137
1994.953125	4909.811523
1993.417969	5032.461914
1991.880859	5028.135742
1990.343750	5036.826660
1988.806641	4967.440430
1987.269531	4964.756836
1985.732422	5023.856445
1984.193359	5079.680176
1982.656250	4982.715820
1981.117188	4900.415527
1979.578125	5042.326172
1978.039063	4977.913086
1976.500000	5046.677246
1974.958984	4897.872559
1973.417969	4973.116211
1971.878906	5011.004883
1970.337891	5123.507813
1968.796875	5072.135742
1967.253906	5002.946777
1965.712891	5026.204590
1964.169922	4995.958496
1962.626953	4962.484375
1961.083984	5074.853516
1959.541016	5008.976563
1957.998047	4965.802734
1956.455078	4956.652344
1954.910156	5013.882813
1953.365234	4930.270020
1951.820313	4966.443848
1950.275391	5002.602051
1948.730469	5111.536133
1947.183594	5040.911133
1945.638672	5007.503906
1944.091797	5053.321777
1942.544922	5058.715332
1940.998047	4962.307129
1939.449219	4996.796387
1937.902344	4977.970215
1936.353516	5009.211914
1934.804688	4929.040039
1933.255859	4945.751465
1931.707031	5007.641602
1930.158203	4974.311523
1928.607422	4971.644531
1927.058594	5007.685547
1925.507813	4971.150879
1923.957031	4936.244141
1922.406250	5072.198242
1920.853516	5058.232910
1919.302734	4995.940918
1917.750000	4961.057617
1916.197266	4980.942383
1914.644531	4968.617676
1913.091797	4993.321289
1911.539063	4911.796387
1909.984375	4991.208008
1908.431641	4959.586914
1906.876953	5035.738281
1905.322266	5042.712402
1903.767578	4983.769531
1902.210938	5030.935059
1900.656250	4873.993164
1899.099609	5054.513184
1897.542969	5103.239746
1895.986328	4973.683105
1894.429688	4906.800293
1892.873047	5090.371094
1891.314453	5156.702148
1889.755859	4988.732422
1888.199219	4883.399902
1886.640625	4933.693359
1885.080078	4972.740234
1883.521484	4889.922852
1881.960938	4917.741699
1880.402344	4963.177246
1878.841797	4950.912109
1877.281250	4940.254395
1875.720703	5016.085449
1874.158203	5027.834961
1872.597656	4879.491211
1871.035156	4904.068848
1869.472656	5072.654297
1867.910156	4978.790039
1866.347656	5035.321289
1864.783203	4899.925293
1863.220703	4985.228027
1861.656250	5000.160156
1860.091797	4992.710938
1858.527344	4906.970703
1856.962891	4915.519043
1855.396484	5018.296875
1853.832031	4945.379395
1852.265625	4952.317383
1850.699219	4951.270996
1849.132813	4924.692383
1847.566406	4945.988770
1845.998047	4938.563477
1844.431641	5017.260742
1842.863281	5078.385742
1841.294922	5019.924316
1839.726563	5033.208496
1838.156250	5064.014648
1836.587891	4902.039551
1835.017578	5073.025391
1833.449219	5035.327637
1831.878906	4924.408691
1830.306641	4936.103027
1828.736328	4992.352539
1827.166016	5037.440430
1825.593750	5026.832031
1824.021484	5063.940918
1822.449219	4988.136719
1820.876953	5106.315918
1819.304688	5046.428711
1817.730469	4967.497559
1816.158203	4933.084961
1814.583984	4990.814941
1813.009766	5054.872070
1811.435547	4985.531738
1809.859375	5032.101074
1808.285156	5069.128418
1806.708984	4995.067871
1805.132813	4990.840332
1803.556641	5027.852051
1801.980469	5080.705566
1800.404297	5047.924316
1798.826172	5045.273438
1797.248047	4999.835449
1795.671875	4952.832031
1794.093750	4969.210449
1792.513672	5003.003418
1790.935547	5013.030273
1789.355469	5113.287598
1787.777344	5080.553223
1786.197266	5054.161621
1784.617188	5064.168457
1783.035156	5069.425781
1781.455078	5031.982910
1779.873047	5119.459473
1778.292969	5063.052734
1776.710938	5076.206543
1775.128906	5135.176270
1773.544922	5224.135742
1771.962891	5012.973633
1770.378906	5016.651367
1768.794922	5149.782715
1767.212891	4964.023438
1765.626953	4986.645508
1764.042969	5113.387207
1762.458984	5039.746582
1760.873047	5074.954102
1759.287109	5054.960938
1757.701172	5156.357910
1756.115234	5136.355469
1754.529297	5002.909180
1752.941406	5165.691895
1751.355469	5235.477539
1749.767578	5273.738770
1748.179688	5145.098633
1746.591797	5202.250977
1745.001953	5218.461914
1743.414063	5173.303711
1741.824219	5173.783203
1740.234375	5202.570801
1738.644531	5327.261719
1737.054688	5313.559082
1735.462891	5384.734375
1733.873047	5323.882813
1732.281250	5404.451660
1730.689453	5428.440430
1729.097656	5367.616699
1727.505859	5383.751953
1725.912109	5305.696289
1724.320313	5364.210938
1722.726563	5424.269531
1721.132813	5493.714844
1719.539063	5412.563477
1717.945313	5445.915527
1716.349609	5562.343750
1714.755859	5490.632813
1713.160156	5547.452637
1711.564453	5554.111816
1709.968750	5634.389648
1708.371094	5661.385742
1706.775391	5556.847656
1705.177734	5674.642578
1703.580078	5581.101074
1701.982422	5634.685059
1700.384766	5666.344727
1698.787109	5751.169434
1697.187500	5682.709473
1695.587891	5772.184570
1693.990234	5722.505371
1692.390625	5733.794922
1690.789063	5698.206055
1689.189453	5864.143555
1687.587891	5769.194336
1685.988281	5875.710938
1684.386719	5911.932129
1682.785156	5965.306152
1681.181641	6032.701172
1679.580078	6036.102051
1677.976563	6070.697266
1676.373047	6072.528320
1674.769531	6135.164551
1673.166016	6216.479492
1671.562500	6238.537598
1669.957031	6213.841797
1668.353516	6372.977051
1666.748047	6393.429199
1665.142578	6608.515137
1663.537109	6507.476563
1661.929688	6675.751465
1660.324219	6682.115234
1658.716797	6816.052734
1657.109375	6939.044434
1655.501953	7010.663574
1653.894531	6985.852051
1652.285156	7034.111816
1650.677734	7214.455566
1649.068359	7202.045898
1647.458984	7354.312988
1645.849609	7292.176270
1644.240234	7276.650391
1642.628906	7553.004883
1641.019531	7511.041992
1639.408203	7542.034180
1637.796875	7597.836914
1636.185547	7600.875000
1634.572266	7748.141602
1632.960938	7777.504395
1631.347656	7761.897949
1629.734375	7845.489746
1628.121094	7963.135742
1626.507813	7997.073242
1624.894531	8004.664551
1623.279297	8037.028809
1621.664063	7995.063477
1620.048828	8228.642578
1618.433594	8293.435547
1616.818359	8232.874023
1615.203125	8333.216797
1613.585938	8367.012695
1611.968750	8396.155273
1610.351563	8484.029297
1608.734375	8568.774414
1607.117188	8588.582031
1605.498047	8758.239258
1603.878906	8896.930664
1602.261719	8709.720703
1600.640625	8845.274414
1599.021484	8928.287109
1597.402344	8833.785156
1595.781250	8739.323242
1594.162109	8970.395508
1592.541016	9011.665039
1590.919922	9125.389648
1589.296875	9087.984375
1587.675781	9095.291992
1586.052734	9383.054688
1584.429688	9239.310547
1582.806641	9245.039063
1581.183594	9104.463867
1579.560547	9000.900391
1577.935547	9168.304688
1576.312500	9258.685547
1574.687500	9035.136719
1573.062500	9099.354492
1571.435547	9214.298828
1569.810547	9287.674805
1568.183594	9108.891602
1566.558594	9086.961914
1564.931641	8866.805664
1563.304688	8960.163086
1561.675781	8878.371094
1560.048828	8678.363281
1558.419922	8839.256836
1556.791016	8863.459961
1555.162109	8754.130859
1553.533203	8950.194336
1551.904297	9000.435547
1550.273438	9079.795898
1548.642578	9097.785156
1547.011719	9157.159180
1545.380859	9213.441406
1543.750000	9108.792969
1542.119141	9027.169922
1540.486328	8888.906250
1538.853516	8811.958008
1537.220703	8712.076172
1535.587891	8821.955078
1533.955078	8752.721680
1532.320313	8738.601563
1530.685547	8794.858398
1529.052734	8459.543945
1527.416016	8413.381836
1525.781250	8532.351563
1524.146484	8461.736328
1522.509766	8568.417969
1520.873047	8400.042969
1519.236328	8515.855469
1517.599609	8396.432617
1515.962891	8503.033203
1514.324219	8643.171875
1512.687500	8534.479492
1511.048828	8682.178711
1509.410156	8546.063477
1507.771484	8658.614258
1506.130859	8737.570313
1504.492188	8540.545898
1502.851563	8372.567383
1501.210938	8338.761719
1499.570313	8250.123047
1497.927734	8121.916504
1496.287109	8007.471191
1494.644531	7918.958496
1493.001953	8075.565918
1491.359375	8034.254883
1489.716797	7927.532227
1488.074219	7925.822754
1486.429688	7832.856934
1484.785156	7904.156250
1483.140625	7826.436523
1481.496094	7789.788574
1479.851563	7897.520508
1478.207031	7774.270996
1476.560547	7737.655762
1474.914063	7798.249512
1473.267578	7840.596191
1471.621094	7870.779785
1469.972656	7823.548828
1468.326172	7812.753906
1466.677734	7814.099121
1465.029297	7809.375977
1463.380859	7698.510254
1461.732422	7804.482422
1460.082031	7878.578613
1458.431641	7820.805176
1456.783203	7803.961914
1455.132813	7632.625000
1453.480469	7812.698730
1451.830078	7603.581055
1450.177734	7583.769531
1448.527344	7685.037598
1446.875000	7586.535645
1445.220703	7469.923340
1443.568359	7413.856934
1441.916016	7403.176758
1440.261719	7527.047363
1438.607422	7467.980469
1436.953125	7514.715820
1435.298828	7505.531250
1433.642578	7318.117188
1431.988281	7191.188477
1430.332031	7216.803711
1428.675781	7088.441406
1427.019531	7105.011230
1425.361328	7012.939453
1423.705078	6856.041992
1422.046875	6990.285645
1420.388672	6895.280762
1418.730469	6881.721680
1417.072266	7049.027832
1415.412109	6981.193359
1413.753906	6943.518066
1412.093750	7020.329102
1410.433594	6988.683594
1408.773438	7228.046875
1407.111328	7181.316895
1405.451172	7413.008301
1403.789063	7563.352539
1402.126953	7668.504395
1400.464844	7742.027832
1398.802734	7967.377930
1397.138672	7974.660156
1395.474609	7911.302246
1393.812500	7841.960449
1392.146484	7768.141602
1390.482422	7725.894531
1388.818359	7584.560059
1387.152344	7476.314453
1385.486328	7519.709961
1383.820313	7383.012695
1382.154297	7565.935059
1380.488281	7540.282715
1378.820313	7627.112793
1377.154297	7728.897461
1375.486328	7913.080566
1373.818359	8053.721191
1372.148438	8071.437988
1370.480469	8104.125977
1368.810547	8193.709961
1367.140625	8205.392578
1365.470703	8360.782227
1363.800781	8348.474609
1362.130859	8454.383789
1360.458984	8329.857422
1358.787109	8184.445801
1357.115234	8136.295410
1355.443359	8147.967285
1353.771484	8068.456055
1352.097656	8254.978516
1350.423828	8218.804688
1348.751953	8541.140625
1347.076172	8830.479492
1345.402344	8979.341797
1343.728516	9238.600586
1342.052734	9584.305664
1340.376953	10053.701172
1338.701172	10217.078125
1337.025391	10616.028320
1335.347656	10855.253906
1333.671875	10970.639648
1331.994141	11091.934570
1330.316406	11254.898438
1328.638672	11307.544922
1326.960938	11232.073242
1325.281250	11396.384766
1323.601563	11158.643555
1321.921875	11047.527344
1320.242188	10637.339844
1318.562500	10730.217773
1316.880859	10320.278320
1315.201172	10011.646484
1313.519531	9831.017578
1311.837891	9525.600586
1310.154297	9264.903320
1308.472656	9057.810547
1306.789063	8984.506836
1305.105469	8661.719727
1303.421875	8440.045898
1301.738281	8139.787598
1300.054688	8126.116211
1298.369141	7922.511719
1296.683594	7882.188477
1294.998047	7741.021973
1293.312500	7619.195313
1291.626953	7458.874512
1289.939453	7263.049805
1288.253906	7387.406738
1286.566406	7236.130859
1284.878906	7163.428711
1283.189453	7074.467285
1281.501953	6948.529297
1279.812500	7000.280762
1278.123047	6933.612305
1276.433594	6914.320313
1274.744141	6921.664063
1273.052734	6949.709473
1271.363281	6942.253906
1269.671875	7023.500488
1267.980469	6922.916992
1266.289063	6881.484375
1264.595703	6843.023438
1262.904297	6851.843750
1261.210938	6866.565918
1259.517578	6726.264160
1257.824219	6712.961914
1256.128906	6532.911133
1254.435547	6636.210449
1252.740234	6597.859375
1251.044922	6714.369629
1249.349609	6802.813965
1247.652344	6715.805664
1245.957031	6851.368164
1244.259766	6866.050781
1242.562500	6789.395996
1240.865234	6749.592773
1239.167969	6600.848145
1237.468750	6556.687012
1235.769531	6558.169922
1234.072266	6477.250977
1232.371094	6447.855957
1230.671875	6506.720215
1228.972656	6465.567383
1227.271484	6405.320313
1225.570313	6296.596191
1223.869141	6334.866699
1222.167969	6354.020508
1220.464844	6417.229492
1218.763672	6448.103027
1217.060547	6318.933105
1215.357422	6305.778809
1213.654297	6437.911621
1211.949219	6363.114258
1210.246094	6326.487305
1208.541016	6282.543457
1206.835938	6364.710938
1205.130859	6301.720703
1203.423828	6375.052246
1201.718750	6416.116211
1200.011719	6454.230957
1198.304688	6438.140137
1196.597656	6460.125488
1194.888672	6496.739258
1193.181641	6498.209961
1191.472656	6426.518066
1189.763672	6413.374023
1188.054688	6413.398438
1186.343750	6343.233887
1184.634766	6300.876953
1182.923828	6359.388184
1181.212891	6252.749512
1179.501953	6188.524902
1177.791016	6260.165527
1176.078125	6233.934570
1174.365234	6254.433105
1172.652344	6163.990234
1170.939453	6293.940918
1169.226563	6245.838867
1167.511719	6189.005859
1165.798828	6184.696777
1164.083984	6241.624512
1162.369141	6069.673828
1160.652344	5957.550781
1158.937500	6040.715332
1157.220703	6033.527832
1155.503906	5882.165527
1153.787109	5842.983398
1152.070313	5863.501953
1150.351563	5837.438965
1148.632813	5716.810059
1146.916016	5760.616211
1145.195313	5677.872070
1143.476563	5756.562988
1141.757813	5765.439941
1140.037109	5733.617188
1138.316406	5767.195801
1136.595703	5757.176758
1134.875000	5629.516602
1133.152344	5692.135742
1131.429688	5686.494141
1129.708984	5677.951172
1127.984375	5766.634766
1126.261719	5624.606445
1124.539063	5662.495605
1122.814453	5588.708984
1121.089844	5596.142578
1119.365234	5507.908691
1117.640625	5521.152832
1115.914063	5438.769531
1114.187500	5462.161133
1112.462891	5533.330078
1110.734375	5365.578125
1109.007813	5512.004395
1107.281250	5504.965820
1105.552734	5445.844238
1103.824219	5385.302246
1102.095703	5369.618652
1100.367188	5304.782715
1098.636719	5299.241699
1096.908203	5251.792480
1095.177734	5253.489258
1093.447266	5258.073730
1091.714844	5116.791504
1089.984375	5187.822266
1088.251953	5131.788086
1086.519531	5152.269043
1084.787109	5178.512207
1083.054688	5087.895508
1081.320313	5057.893066
1079.585938	5179.303223
1077.851563	5094.512695
1076.117188	5006.877930
1074.382813	5093.633301
1072.648438	5062.220215
1070.912109	5029.380859
1069.175781	5039.753906
1067.439453	5029.967285
1065.701172	5126.690918
1063.964844	5050.696289
1062.226563	5061.053223
1060.488281	5019.625977
1058.750000	5027.107910
1057.011719	5179.786621
1055.271484	5075.118164
1053.531250	5003.546875
1051.791016	5052.686523
1050.050781	5143.456543
1048.310547	5129.356934
1046.568359	5095.164063
1044.826172	5184.424805
1043.083984	5167.453613
1041.341797	4999.849121
1039.599609	5153.614746
1037.855469	5188.285645
1036.113281	5119.714355
1034.369141	5062.640625
1032.623047	5176.124023
1030.878906	5154.880371
1029.132813	5150.834473
1027.386719	5188.318848
1025.640625	5307.394531
1023.894531	5223.156738
1022.148438	5174.733398
1020.400391	5193.576660
1018.652344	5203.828125
1016.904297	5355.652344
1015.156250	5363.001465
1013.406250	5263.140137
1011.658203	5406.270020
1009.908203	5323.588379
1008.158203	5543.773438
1006.408203	5415.397461
1004.656250	5582.630859
1002.904297	5541.378418
1001.152344	5607.179199
999.400391	5672.949219
997.648438	5551.820313
995.896484	5482.087891
994.142578	5439.477539
992.388672	5382.631348
990.634766	5369.990723
988.878906	5219.146973
987.125000	5229.340332
985.369141	5174.017090
983.613281	5148.619141
981.857422	5043.515625
980.099609	5011.042480
978.343750	5098.104492
976.585938	4883.548828
974.828125	4986.242676
973.070313	4891.248047
971.310547	4779.238770
969.552734	4888.990234
967.792969	4893.544922
966.033203	4946.395996
964.273438	4982.179199
962.511719	5067.642090
960.750000	5170.100098
958.990234	5254.060059
957.226563	5350.750488
955.464844	5413.349609
953.703125	5363.876465
951.939453	5280.395020
950.175781	5161.511719
948.412109	5014.336914
946.648438	5025.928711
944.882813	4963.850098
943.117188	4870.641113
941.351563	4895.000488
939.585938	4759.380371
937.820313	4829.042969
936.052734	4762.834473
934.285156	4758.900391
932.517578	4668.694336
930.750000	4742.553223
928.982422	4605.740723
927.212891	4641.418945
925.443359	4708.166504
923.673828	4643.502441
921.904297	4580.280273
920.132813	4666.762695
918.361328	4638.856445
916.591797	4733.751953
914.818359	4679.032227
913.046875	4683.587402
911.275391	4638.776367
909.501953	4747.683105
907.728516	4607.015137
905.955078	4615.809082
904.179688	4654.189453
902.406250	4765.806641
900.630859	4685.825195
898.855469	4749.506836
897.080078	4625.925293
895.302734	4807.814941
893.525391	4694.125977
891.750000	4662.083008
889.970703	4663.809570
888.193359	4676.783691
886.416016	4715.056152
884.636719	4694.279785
882.857422	4599.040527
881.078125	4522.107422
879.296875	4484.535645
877.517578	4507.359863
875.736328	4523.153809
873.955078	4526.308594
872.173828	4508.413574
870.390625	4573.294434
868.609375	4805.045410
866.826172	4921.707031
865.042969	4919.155273
863.259766	4903.990234
861.474609	4694.062988
859.689453	4660.745117
857.904297	4588.227051
856.119141	4561.949707
854.333984	4583.280762
852.546875	4502.432617
850.761719	4442.610352
848.974609	4494.729492
847.185547	4366.405273
845.398438	4362.586426
843.609375	4462.216309
841.822266	4405.266602
840.031250	4432.180176
838.242188	4471.653320
836.453125	4427.309570
834.662109	4413.705078
832.871094	4376.375000
831.080078	4392.096680
829.289063	4364.555664
827.496094	4350.976563
825.703125	4259.302734
823.910156	4372.638672
822.117188	4403.674805
820.324219	4369.192383
818.529297	4380.707031
816.734375	4349.031738
814.939453	4329.904785
813.144531	4351.165527
811.347656	4315.342285
809.550781	4315.719727
807.755859	4384.274902
805.957031	4373.506836
804.160156	4325.193359
802.361328	4424.286133
800.564453	4373.202637
798.765625	4345.768066
796.964844	4322.515137
795.166016	4261.766113
793.365234	4295.482910
791.564453	4338.901855
789.763672	4369.807129
787.962891	4321.593262
786.160156	4346.937012
784.359375	4320.944824
782.556641	4374.012207
780.751953	4273.154785
778.949219	4298.484375
777.144531	4301.628906
775.339844	4290.916016
773.535156	4266.356445
771.730469	4344.287109
769.925781	4269.882324
768.119141	4307.632813
766.312500	4301.080566
764.505859	4340.188477
762.697266	4373.744629
760.890625	4324.311035
759.082031	4284.578125
757.273438	4298.770996
755.464844	4335.067871
753.654297	4480.492188
751.845703	4433.852051
750.035156	4500.470215
748.224609	4707.878906
746.412109	4763.357910
744.601563	4904.367188
742.789063	5184.652344
740.976563	5649.631836
739.164063	6508.777832
737.349609	7887.269531
735.537109	9528.368164
733.722656	11342.318359
731.908203	12411.464844
730.091797	12387.867188
728.277344	11043.714844
726.460938	9343.634766
724.644531	7543.883301
722.828125	6368.331543
721.009766	5522.132324
719.193359	5205.859375
717.375000	4826.482910
715.556641	4751.103516
713.736328	4590.545410
711.917969	4528.997559
710.097656	4483.963867
708.277344	4452.685059
706.457031	4476.345215
704.636719	4464.301758
702.814453	4397.364746
700.992188	4344.180664
699.169922	4337.662598
697.347656	4350.348145
695.523438	4358.914063
693.699219	4297.562988
691.875000	4524.047363
690.050781	4517.492676
688.226563	4519.159668
686.400391	4571.498535
684.574219	4477.307129
682.748047	4324.297852
680.921875	4430.018066
679.095703	4390.654785
677.267578	4390.979492
675.439453	4404.979492
673.611328	4443.583008
671.781250	4475.333496
669.953125	4524.833984
668.123047	4516.926758
666.292969	4543.171875
664.460938	4670.460938
662.630859	4704.848145
660.798828	4661.414551
658.966797	4626.189453
657.134766	4700.126953
655.302734	4666.272461
653.468750	4828.804199
651.634766	4784.027344
649.800781	4797.882324
647.966797	4789.926758
646.130859	4773.799805
644.294922	4699.111816
642.458984	4817.825684
640.623047	4671.007324
638.787109	4665.811523
636.949219	4681.029297
635.111328	4666.309570
633.273438	4738.644043
631.435547	4700.800781
629.595703	4736.386230
627.757813	4774.672363
625.917969	4693.364258
624.076172	4733.000000
622.236328	4741.378906
620.394531	4656.062012
618.552734	4589.790527
616.710938	4448.904297
614.869141	4515.687012
613.025391	4294.848633
611.183594	4329.085938
609.339844	4253.478516
607.494141	4263.308105
605.650391	4235.185547
603.804688	4170.493164
601.958984	4066.547119
600.113281	4037.136475
598.267578	4090.331543
596.419922	4093.416016
594.572266	4066.725830
592.724609	4011.635010
590.876953	3966.038818
589.027344	4098.974609
587.179688	4022.281982
585.330078	4053.762207
583.480469	4008.198242
581.628906	4065.336426
579.779297	4071.118896
577.927734	4242.999023
576.076172	4593.008789
574.222656	4861.865234
572.371094	4627.249023
570.517578	4384.650391
568.664063	4219.048340
566.810547	4079.146973
564.955078	4130.750000
563.101563	4133.805664
561.246094	4117.995117
559.390625	4076.594727
557.533203	4153.738281
555.677734	4063.873047
553.820313	3978.089111
551.962891	3967.716309
550.105469	3933.127930
548.246094	3988.687988
546.386719	3920.487061
544.527344	3941.062988
542.667969	3903.824219
540.808594	4015.783936
538.947266	3966.451660
537.085938	3962.815918
535.224609	4062.593018
533.363281	3991.801270
531.500000	3968.025879
529.638672	3941.577393
527.775391	4015.770264
525.910156	3971.884277
524.046875	4109.064453
522.181641	4279.697754
520.316406	4627.187012
518.451172	4547.012207
516.585938	4227.052734
514.718750	4134.956055
512.851563	3923.718994
510.984375	3790.235107
509.117188	3856.253174
507.250000	3714.819580
505.380859	3827.648926
503.511719	3833.419922
501.642578	3807.094482
499.771484	3744.684814
497.902344	3703.690186
496.031250	3614.609375
494.160156	3739.322754
492.287109	3715.721191
490.416016	3754.890381
488.542969	3688.576416
486.669922	3751.756836
484.796875	3654.784912
482.921875	3663.247314
481.046875	3662.369629
479.171875	3693.493652
477.296875	3636.619629
475.421875	3687.725586
473.544922	3581.579834
471.667969	3684.626465
469.791016	3763.651123
467.914063	3680.197754
466.035156	3600.777588
464.156250	3690.411621
462.277344	3662.916992
460.398438	3660.708984
458.519531	3713.026855
456.638672	3611.090332
454.757813	3608.895752
452.876953	3629.293457
450.994141	3716.111816
449.113281	3627.554199
447.230469	3655.899902
445.347656	3645.730225
443.462891	3676.712402
441.580078	3715.641602
439.695313	3739.958496
437.810547	3631.625244
435.925781	3588.321045
434.039063	3747.875732
432.152344	3686.008057
430.267578	3752.705078
428.378906	3799.498047
426.492188	3656.868896
424.603516	3640.102539
422.714844	3704.098145
420.826172	3607.916748
418.937500	3532.952637
417.046875	3715.987305
415.158203	3576.226807
413.265625	3649.415771
411.375000	3553.361816
409.484375	3610.661621
407.591797	3583.370117
405.699219	3598.363281
403.806641	3482.602783
401.912109	3475.166504
400.019531	3499.414307
