#Wave		#Intensity
1585.210938	8317.161133
1584.209961	8309.667969
1583.208984	8315.437500
1582.208008	8276.265625
1581.206055	8222.132813
1580.204102	8290.305664
1579.202148	8271.123047
1578.200195	8311.816406
1577.198242	8242.755859
1576.195313	8208.632813
1575.192383	8184.496094
1574.189453	8284.992188
1573.186523	8410.366211
1572.182617	8184.394043
1571.178711	8227.536133
1570.174805	8086.368652
1569.170898	8084.693848
1568.166992	8214.957031
1567.162109	8205.789063
1566.158203	8084.648926
1565.153320	8269.562500
1564.147461	8245.463867
1563.142578	7987.615234
1562.136719	8023.255859
1561.130859	8140.911621
1560.125000	8198.872070
1559.119141	8177.296387
1558.113281	8220.319336
1557.106445	8345.287109
1556.099609	8341.075195
1555.092773	8361.692383
1554.084961	8397.194336
1553.078125	8256.482422
1552.070313	8291.990234
1551.062500	8364.692383
1550.054688	8377.840820
1549.045898	8353.790039
1548.038086	8347.102539
1547.029297	8412.295898
1546.020508	8318.865234
1545.011719	8252.726563
1544.001953	8317.898438
1542.992188	8251.786133
1541.982422	8346.642578
1540.972656	8362.243164
1539.962891	8256.562500
1538.952148	8158.348145
1537.942383	8334.784180
1536.931641	8308.324219
1535.919922	8061.783203
1534.909180	8225.766602
1533.897461	8169.681641
1532.886719	8064.190918
1531.874023	8116.880859
1530.862305	7957.096191
1529.850586	8056.713379
1528.837891	8309.388672
1527.825195	8221.258789
1526.812500	8113.417969
1525.799805	8215.386719
1524.786133	8218.620117
1523.772461	8046.708984
1522.758789	8003.116211
1521.745117	7994.061523
1520.731445	8209.349609
1519.716797	8180.537598
1518.702148	8151.736816
1517.687500	8127.875000
1516.672852	8182.846191
1515.657227	8043.239258
1514.642578	8164.684082
1513.626953	8113.759277
1512.610352	8235.138672
1511.594727	8294.950195
1510.579102	8106.258789
1509.562500	8166.071289
1508.545898	8203.726563
1507.529297	8157.771484
1506.511719	8089.712402
1505.494141	8151.935059
1504.477539	8172.360352
1503.458984	8246.822266
1502.441406	8134.589355
1501.423828	8211.483398
1500.405273	8158.225098
1499.386719	8144.262207
1498.368164	8172.023438
1497.348633	8405.871094
1496.330078	8310.914063
1495.310547	8206.185547
1494.291016	8133.376465
1493.271484	8278.782227
1492.250977	8235.399414
1491.231445	8343.965820
1490.210938	8251.586914
1489.190430	8384.598633
1488.168945	8255.513672
1487.148438	8417.850586
1486.126953	8354.906250
1485.105469	8257.723633
1484.083984	8329.419922
1483.061523	8308.122070
1482.040039	8333.304688
1481.017578	8527.211914
1479.995117	8518.109375
1478.971680	8672.785156
1477.949219	8502.357422
1476.925781	8784.029297
1475.902344	8701.591797
1474.878906	8848.773438
1473.855469	8842.054688
1472.831055	8935.434570
1471.806641	9038.538086
1470.782227	8892.682617
1469.757813	9100.665039
1468.733398	9130.489258
1467.708008	9406.623047
1466.682617	9504.643555
1465.657227	9636.752930
1464.631836	9763.931641
1463.605469	9878.873047
1462.579102	10113.145508
1461.552734	10271.810547
1460.526367	10681.245117
1459.500000	10588.940430
1458.472656	10650.034180
1457.445313	10672.162109
1456.417969	10348.752930
1455.390625	10429.319336
1454.362305	10324.998047
1453.334961	10196.402344
1452.306641	10196.716797
1451.277344	10041.461914
1450.249023	9745.316406
1449.219727	9736.002930
1448.191406	9546.928711
1447.162109	9535.231445
1446.131836	9426.408203
1445.102539	9337.051758
1444.072266	9388.510742
1443.041992	9202.129883
1442.011719	9253.594727
1440.981445	9290.483398
1439.950195	9031.480469
1438.918945	9153.263672
1437.887695	9085.908203
1436.856445	9193.085938
1435.825195	8990.049805
1434.792969	9131.120117
1433.760742	9008.112305
1432.728516	8899.685547
1431.696289	8982.576172
1430.663086	8753.165039
1429.629883	8594.033203
1428.596680	8451.905273
1427.563477	8675.129883
1426.530273	8571.741211
1425.496094	8562.703125
1424.461914	8456.962891
1423.427734	8481.791992
1422.393555	8361.611328
1421.358398	8345.375000
1420.323242	8447.510742
1419.288086	8503.715820
1418.252930	8337.750000
1417.217773	8418.095703
1416.181641	8483.924805
1415.145508	8402.525391
1414.109375	8424.901367
1413.073242	8678.833008
1412.036133	8440.686523
1411.000000	8523.317383
1409.962891	8709.570313
1408.924805	8688.475586
1407.887695	8879.434570
1406.849609	8855.902344
1405.812500	9191.263672
1404.773438	9006.332031
1403.735352	9305.405273
1402.697266	9517.698242
1401.658203	9503.681641
1400.619141	9487.263672
1399.580078	9684.951172
1398.540039	9757.490234
1397.500977	9832.402344
1396.460938	9796.694336
1395.420898	9693.700195
1394.380859	9670.050781
1393.339844	9687.253906
1392.298828	9596.355469
1391.257813	9623.172852
1390.216797	9385.858398
1389.175781	9525.534180
1388.133789	9446.743164
1387.091797	9708.725586
1386.049805	9641.923828
1385.007813	9831.797852
1383.964844	10105.524414
1382.922852	10084.233398
1381.879883	10206.776367
1380.835938	10247.783203
1379.792969	10473.269531
1378.749023	10576.487305
1377.706055	11038.923828
1376.661133	10828.288086
1375.617188	11086.980469
1374.573242	11005.674805
1373.528320	11056.022461
1372.483398	11056.104492
1371.438477	11013.126953
1370.392578	10998.867188
1369.347656	10778.978516
1368.301758	10669.148438
1367.255859	10396.837891
1366.208984	10203.497070
1365.163086	10132.079102
1364.116211	10258.943359
1363.069336	10149.333008
1362.022461	10046.930664
1360.974609	10032.892578
1359.927734	9847.025391
1358.879883	9897.458008
1357.832031	9821.432617
1356.783203	9759.749023
1355.735352	9881.704102
1354.686523	9936.851563
1353.637695	9975.291016
1352.588867	9985.117188
1351.539063	10185.544922
1350.490234	10464.496094
1349.440430	10524.224609
1348.390625	10805.368164
1347.339844	11005.453125
1346.290039	11426.801758
1345.239258	11569.560547
1344.188477	11843.108398
1343.137695	12114.163086
1342.085938	12206.746094
1341.034180	12465.720703
1339.982422	12586.713867
1338.930664	12814.602539
1337.878906	13132.686523
1336.826172	13215.452148
1335.773438	13231.678711
1334.720703	13342.881836
1333.667969	13126.411133
1332.614258	13123.655273
1331.561523	13014.109375
1330.507813	12869.019531
1329.453125	12892.409180
1328.399414	12545.817383
1327.344727	12429.367188
1326.290039	12322.448242
1325.235352	12305.637695
1324.180664	11855.193359
1323.125000	11724.769531
1322.070313	11722.303711
1321.014648	11435.664063
1319.958008	11134.938477
1318.902344	11229.648438
1317.845703	11075.822266
1316.789063	10967.015625
1315.732422	10810.941406
1314.675781	10669.123047
1313.618164	10517.905273
1312.560547	10513.327148
1311.502930	10322.022461
1310.445313	10381.291016
1309.386719	10223.169922
1308.329102	10072.201172
1307.270508	10188.162109
1306.210938	10096.291992
1305.152344	9825.049805
1304.092773	9676.649414
1303.033203	9632.135742
1301.973633	9613.590820
1300.914063	9672.889648
1299.853516	9489.270508
1298.792969	9374.101563
1297.732422	9367.410156
1296.671875	9282.950195
1295.611328	9028.879883
1294.549805	9187.161133
1293.488281	9281.785156
1292.426758	9060.839844
1291.364258	8870.591797
1290.302734	8892.255859
1289.240234	8993.918945
1288.177734	8949.670898
1287.114258	8863.101563
1286.051758	8734.236328
1284.988281	8798.224609
1283.924805	8756.403320
1282.861328	8916.717773
1281.796875	8865.489258
1280.732422	9006.916992
1279.667969	8887.576172
1278.603516	9132.260742
1277.539063	9332.234375
1276.473633	9245.759766
1275.408203	9370.527344
1274.342773	9340.389648
1273.277344	9523.726563
1272.210938	9392.722656
1271.145508	9479.833984
1270.079102	9445.007813
1269.011719	9318.788086
1267.945313	9244.173828
1266.877930	9193.017578
1265.810547	9130.170898
1264.743164	9004.122070
1263.674805	8924.951172
1262.607422	8822.406250
1261.539063	8722.244141
1260.470703	8549.589844
1259.401367	8636.669922
1258.333008	8597.417969
1257.263672	8707.832031
1256.194336	8462.853516
1255.125000	8528.839844
1254.054688	8578.439453
1252.985352	8459.802734
1251.915039	8434.648438
1250.843750	8358.126953
1249.773438	8531.464844
1248.702148	8494.637695
1247.630859	8317.794922
1246.559570	8446.695313
1245.488281	8288.599609
1244.416016	8345.146484
1243.343750	8168.483887
1242.271484	8451.172852
1241.199219	8447.045898
1240.125977	8261.150391
1239.053711	8238.423828
1237.980469	8397.398438
1236.906250	8265.194336
1235.833008	8291.375977
1234.758789	8261.676758
1233.684570	8306.465820
1232.610352	8374.504883
1231.536133	8351.784180
1230.460938	8194.168945
1229.385742	8362.178711
1228.310547	8413.870117
1227.235352	8184.284668
1226.159180	8326.624023
1225.083008	8341.113281
1224.006836	8404.376953
1222.930664	8172.663574
1221.853516	8071.077148
1220.777344	8357.214844
1219.700195	8357.753906
1218.622070	8198.178711
1217.544922	8136.110840
1216.466797	8210.916992
1215.388672	8220.758789
1214.310547	8381.296875
1213.232422	8191.750488
1212.153320	8268.795898
1211.074219	8366.660156
1209.995117	8469.115234
1208.916016	8488.149414
1207.835938	8426.131836
1206.755859	8338.675781
1205.675781	8404.013672
1204.595703	8369.820313
1203.514648	8442.063477
1202.434570	8303.789063
1201.353516	8281.199219
1200.271484	8304.860352
1199.190430	8178.259277
1198.108398	8252.773438
1197.026367	8274.112305
1195.944336	8290.821289
1194.862305	8270.569336
1193.779297	8072.526367
1192.696289	7962.293457
1191.613281	7972.127930
1190.530273	7866.577637
1189.446289	7917.955078
1188.362305	7939.323730
1187.278320	7896.111328
1186.194336	7816.027344
1185.109375	7929.606445
1184.024414	7918.687012
1182.939453	7887.034180
1181.854492	7783.981934
1180.768555	7722.429688
1179.683594	7794.456543
1178.597656	7700.696777
1177.510742	7627.691895
1176.424805	7651.366211
1175.337891	7649.722656
1174.250977	7719.384277
1173.164063	7726.923828
1172.077148	7562.020996
1170.989258	7771.875000
1169.901367	7597.839355
1168.813477	7605.395996
1167.724609	7569.302246
1166.636719	7723.850586
1165.547852	7752.039551
1164.458984	7587.374512
1163.369141	7679.845703
1162.280273	7554.276855
1161.190430	7621.477539
1160.100586	7645.067383
1159.010742	7650.300293
1157.919922	7687.629395
1156.829102	7596.574219
1155.738281	7624.730469
1154.647461	7710.155273
1153.555664	7740.564453
1152.464844	7860.280762
1151.373047	7844.846680
1150.280273	7838.576172
1149.188477	7683.534668
1148.095703	7789.427734
1147.002930	7735.126465
1145.910156	7866.122070
1144.817383	7894.152344
1143.723633	7862.725586
1142.629883	7957.032715
1141.536133	7655.932617
1140.441406	7697.690918
1139.347656	7999.848145
1138.252930	7909.048340
1137.158203	7802.303223
1136.062500	7814.313477
1134.967773	7782.952637
1133.872070	7915.901367
1132.776367	7813.807129
1131.679688	7777.902832
1130.583984	7890.240234
1129.487305	7911.332031
1128.390625	7914.178223
1127.292969	7894.232910
1126.196289	7949.484375
1125.098633	7922.705078
1124.000977	7996.145020
1122.903320	8017.181641
1121.804688	7719.503418
1120.706055	7849.836914
1119.607422	7900.471191
1118.508789	7782.733398
1117.409180	7922.064453
1116.310547	7897.605957
1115.210938	7823.140137
1114.110352	7853.264648
1113.010742	7669.758789
1111.910156	7870.304199
1110.809570	7764.104980
1109.708984	7771.502930
1108.607422	7853.825195
1107.506836	7665.974609
1106.405273	7630.265625
1105.303711	7576.418945
1104.201172	7808.435547
1103.098633	7797.665527
1101.996094	7494.380859
1100.893555	7540.359863
1099.791016	7554.585938
1098.687500	7464.564453
1097.583984	7553.564941
1096.480469	7556.451172
1095.376953	7520.836914
1094.272461	7704.858398
1093.167969	7610.371582
1092.063477	7524.977539
1090.958008	7555.015137
1089.853516	7492.291016
1088.748047	7574.339844
1087.642578	7511.637207
1086.536133	7541.649414
1085.430664	7510.622559
1084.324219	7642.307129
1083.217773	7554.790039
1082.110352	7546.365723
1081.003906	7696.020020
1079.896484	7617.578125
1078.789063	7613.657715
1077.680664	7648.103516
1076.573242	7678.020996
1075.464844	7667.321289
1074.356445	7618.285645
1073.247070	7580.544922
1072.138672	7709.636719
1071.029297	7635.830566
1069.919922	7613.881836
1068.809570	7659.525879
1067.700195	7572.263184
1066.589844	7750.751953
1065.479492	7692.773438
1064.368164	7711.347656
1063.257813	7734.414063
1062.146484	7714.722168
1061.035156	7526.336914
1059.922852	7830.534180
1058.811523	7644.452637
1057.699219	7752.924316
1056.586914	7668.072266
1055.473633	7594.491699
1054.361328	7752.321289
1053.248047	7696.720215
1052.134766	7708.505371
1051.021484	7632.732422
1049.907227	7534.547852
1048.792969	7611.433105
1047.678711	7612.006348
1046.564453	7691.082031
1045.449219	7660.242188
1044.333984	7750.480957
1043.218750	7748.779297
1042.103516	7717.944824
1040.987305	7642.313477
1039.871094	7656.314453
1038.754883	7849.468750
1037.638672	7823.114746
1036.521484	7872.880859
1035.404297	7770.438477
1034.287109	7842.568848
1033.169922	7796.103027
1032.051758	7803.333984
1030.933594	7868.699219
1029.815430	7837.905273
1028.697266	7733.366211
1027.578125	7928.307617
1026.458984	7872.943359
1025.339844	8007.459473
1024.220703	7804.715820
1023.100586	7827.555176
1021.980469	7901.722656
1020.860352	7844.190430
1019.740234	7989.716797
1018.619141	8025.876465
1017.498047	8062.019043
1016.376953	7982.202637
1015.255859	7978.212891
1014.133789	7943.022461
1013.011719	7956.867188
1011.889648	8001.892578
1010.767578	8060.260742
1009.644531	7920.424805
1008.521484	7920.901855
1007.398438	8032.664551
1006.274414	7901.826172
1005.151367	7951.249512
1004.027344	7989.528809
1002.902344	7949.958984
1001.778320	7792.572266
1000.653320	7999.790527
999.528320	7998.021484
998.403320	7747.411133
997.278320	7776.795410
996.152344	7819.490723
995.026367	7839.963379
993.900391	7738.335449
992.773438	7860.905273
991.646484	7817.006348
990.519531	7770.908203
989.392578	7849.029785
988.265625	7896.073242
987.137695	7796.780273
986.009766	7834.947266
984.881836	7755.653809
983.752930	7866.920410
982.624023	7843.026367
981.495117	7781.497559
980.366211	7832.905762
979.236328	7842.234863
978.106445	7676.735840
976.976563	7624.145508
975.846680	7704.295898
974.715820	7731.334473
973.585938	7787.103027
972.454102	7648.322754
971.323242	7810.164063
970.191406	7817.266602
969.060547	7643.225586
967.927734	7696.739746
966.795898	7706.068848
965.663086	7755.128906
964.530273	7918.933594
963.397461	7850.975098
962.264648	8010.272461
961.130859	7990.845215
959.997070	8015.527832
958.863281	8183.498535
957.729492	8067.062500
956.594727	8010.175293
955.459961	8160.407715
954.325195	8207.047852
953.189453	8075.292480
952.053711	8060.283203
950.917969	8014.463379
949.782227	7926.850098
948.646484	7870.078125
947.509766	7868.323242
946.373047	7523.491699
945.235352	7768.069824
944.098633	7717.975586
942.960938	7694.275879
941.823242	7637.627441
940.685547	7701.825195
939.546875	7643.002930
938.408203	7527.115723
937.269531	7637.394043
936.129883	7653.246582
934.991211	7673.479492
933.851563	7757.323730
932.711914	7696.370117
931.571289	7815.255371
930.431641	7881.470703
929.291016	7697.784668
928.149414	7978.748535
927.008789	7654.905273
925.867188	7863.469238
924.725586	7837.621094
923.583984	7789.889160
922.441406	7729.044922
921.299805	7777.648438
920.157227	7773.718750
919.013672	7741.353516
917.871094	7724.310547
916.727539	7512.679688
915.583984	7670.572266
914.439453	7502.756348
913.295898	7664.949219
912.151367	7654.492676
911.006836	7464.951172
909.861328	7570.269531
908.716797	7481.250000
907.571289	7545.047852
906.424805	7597.906250
905.279297	7460.944336
904.132813	7627.211914
902.986328	7490.303711
901.839844	7697.910645
900.692383	7619.895508
899.545898	7722.781738
898.398438	7614.293945
897.250000	7706.243164
896.102539	7848.235840
894.954102	7613.516113
893.805664	7844.708008
892.656250	7816.830078
891.507813	7682.354980
890.358398	7750.233398
889.208984	7639.754395
888.058594	7670.648926
886.908203	7610.232422
885.758789	7675.889648
884.607422	7500.341797
883.457031	7655.056152
882.305664	7594.694336
881.154297	7579.956543
880.002930	7515.295898
878.850586	7713.270996
877.698242	7559.645508
876.545898	7401.750488
875.393555	7495.510742
874.240234	7597.901855
873.086914	7394.577637
871.933594	7525.120117
870.780273	7480.084961
869.625977	7519.559082
868.471680	7418.230957
867.317383	7423.053223
866.162109	7536.119141
865.007813	7473.813477
863.852539	7394.224121
862.696289	7587.266113
861.541016	7442.796387
860.384766	7348.128418
859.228516	7469.702148
858.072266	7474.499023
856.915039	7524.674316
855.757813	7479.763184
854.600586	7365.750000
853.442383	7439.668945
852.285156	7537.304199
851.126953	7544.233887
849.968750	7654.748047
848.809570	7700.483398
847.650391	7672.855957
846.491211	7761.697754
845.332031	7449.457031
844.171875	7566.331543
843.012695	7502.118652
841.851563	7407.769043
840.691406	7498.721191
839.530273	7361.339844
838.369141	7370.437988
837.208008	7523.764160
836.046875	7438.122070
834.884766	7376.187500
833.722656	7531.557129
832.560547	7499.738770
831.397461	7392.674316
830.234375	7530.734375
829.071289	7541.922363
827.908203	7460.705078
826.744141	7446.122070
825.580078	7407.919434
824.416016	7466.363770
823.251953	7410.997559
822.086914	7516.634277
820.921875	7472.009277
819.756836	7294.389160
818.590820	7251.979004
817.425781	7473.352539
816.259766	7265.835938
815.092773	7313.484375
813.926758	7459.687500
812.759766	7389.432617
811.592773	7428.450684
810.424805	7398.921875
809.257813	7350.137207
808.089844	7359.167969
806.920898	7381.034668
805.752930	7308.750000
804.583984	7433.292969
803.415039	7485.065918
802.246094	7340.109863
801.076172	7304.236816
799.906250	7471.407227
798.736328	7444.066406
797.566406	7435.962891
796.395508	7511.153809
795.224609	7225.463379
794.053711	7475.711426
792.881836	7495.350098
791.710938	7337.880371
790.538086	7413.004395
789.366211	7532.881836
788.194336	7433.080078
787.021484	7544.369629
785.848633	7399.852539
784.674805	7438.650391
783.500977	7326.176758
782.327148	7575.826172
781.153320	7399.491211
779.979492	7414.833496
778.804688	7225.844238
777.629883	7288.031738
776.454102	7382.101074
775.279297	7444.223145
774.103516	7399.994629
772.927734	7298.385254
771.750977	7262.710938
770.575195	7195.177246
769.398438	7287.011230
768.220703	7357.562500
767.043945	7300.669434
765.866211	7226.817383
764.688477	7327.048340
763.510742	7331.739258
762.332031	7296.117676
761.153320	7239.300781
759.974609	7519.686523
758.794922	7405.599609
757.616211	7524.725098
756.436523	7527.241699
755.255859	7599.672852
754.076172	7767.388672
752.895508	7666.079102
751.714844	7793.474121
750.533203	7941.978027
749.352539	8168.714355
748.170898	8329.757813
746.988281	8600.720703
745.806641	8918.084961
744.624023	9091.529297
743.441406	9666.520508
742.258789	10503.301758
741.075195	11208.701172
739.891602	12627.758789
738.708008	13881.437500
737.523438	15670.836914
736.339844	17007.677734
735.155273	18451.537109
733.969727	19265.966797
732.785156	19466.166016
731.599609	18892.275391
730.414063	18261.716797
729.227539	16590.085938
728.041992	14988.770508
726.855469	13592.571289
725.667969	12188.585938
724.481445	11349.673828
723.293945	10681.699219
722.106445	9986.664063
720.918945	9405.597656
719.730469	9239.313477
718.541992	8732.312500
717.353516	8467.409180
716.164063	8360.329102
714.975586	8005.235840
713.786133	7826.850586
712.595703	7755.710938
711.406250	7541.750977
710.215820	7514.814453
709.025391	7458.492188
707.833984	7374.903809
706.642578	7480.249023
705.451172	7388.299805
704.259766	7489.395996
703.068359	7582.056152
701.875977	7540.470703
700.683594	7257.815430
699.490234	7298.064453
698.297852	7327.816895
697.104492	7347.080566
695.910156	7324.444824
694.716797	7324.853027
693.522461	7484.368652
692.328125	7526.599609
691.132813	7581.366211
689.938477	7441.542969
688.743164	7638.531250
687.547852	7699.505859
686.351563	7522.118652
685.155273	7733.582031
683.958984	7514.474121
682.762695	7554.526367
681.565430	7452.527832
680.368164	7490.486816
679.170898	7401.074707
677.973633	7307.529297
676.775391	7437.312500
675.577148	7395.958008
674.378906	7390.081055
673.179688	7388.377441
671.980469	7244.902832
670.781250	7493.357910
669.581055	7345.756836
668.381836	7460.733887
667.181641	7567.325684
665.980469	7600.981934
664.780273	7478.473145
663.579102	7655.756836
662.377930	7629.017578
661.175781	7606.451660
659.973633	7706.619141
658.771484	7686.124023
657.569336	7861.073242
656.367188	7915.380859
655.164063	7863.678223
653.960938	7944.968750
652.756836	7941.057129
651.552734	7955.836426
650.348633	8228.060547
649.144531	8101.615234
647.939453	8211.807617
646.735352	8054.302246
645.529297	8166.527832
644.324219	8065.097656
643.118164	8083.967285
641.912109	8245.855469
640.706055	8229.443359
639.499023	8285.554688
638.292969	8256.710938
637.084961	8180.248047
635.877930	8130.736328
634.669922	8253.055664
633.461914	8236.661133
632.253906	8476.833008
631.044922	8421.090820
629.836914	8222.675781
628.626953	8491.629883
627.417969	8471.061523
626.208008	8371.969727
624.998047	8386.562500
623.788086	8417.672852
622.577148	8039.857422
621.366211	8087.550781
620.155273	7963.888672
618.944336	7786.624512
617.732422	7937.506836
616.520508	7789.209473
615.308594	7756.471191
614.095703	7558.798828
612.882813	7585.908203
611.669922	7505.837402
610.457031	7456.709961
609.243164	7500.302246
608.029297	7241.130859
606.815430	7190.038086
605.600586	7289.240723
604.385742	7252.565918
603.170898	7152.122559
601.955078	7138.123535
600.740234	7163.206055
599.524414	7346.599609
598.307617	7190.722656
597.091797	7115.069824
595.875000	7088.765137
594.658203	7099.447754
593.440430	7157.362305
592.222656	7092.051758
591.004883	7225.893555
589.787109	7094.921875
588.568359	7056.344238
587.349609	7044.452148
586.130859	7196.637207
584.912109	7244.179688
583.692383	7133.852539
582.472656	7062.516602
581.251953	7144.888184
580.032227	7153.474609
578.811523	7116.999023
577.589844	7131.729492
576.369141	7291.797363
575.147461	7414.951172
573.925781	7270.000488
572.703125	7315.365723
571.481445	7321.849609
570.258789	7211.780762
569.035156	7342.985352
567.812500	7494.565918
566.588867	7468.308105
565.365234	7497.218262
564.140625	7585.343262
562.916992	7512.117188
561.692383	7385.848145
560.466797	7461.690430
559.242188	7488.525879
558.016602	7472.508301
556.791016	7401.431152
555.564453	7436.416504
554.337891	7479.539551
553.111328	7316.793945
551.884766	7474.031250
550.657227	7484.520020
549.429688	7352.435059
548.202148	7358.873535
546.974609	7442.666992
545.746094	7451.116211
544.517578	7384.272949
543.288086	7386.627930
542.058594	7449.996582
540.829102	7474.701660
539.599609	7460.769043
538.370117	7491.556152
537.139648	7445.114258
535.909180	7329.622070
534.677734	7403.068359
533.446289	7409.472168
532.214844	7409.782227
530.983398	7300.492676
529.750977	7379.963379
528.519531	7351.877441
527.286133	7228.479004
526.053711	7413.351074
524.820313	7198.768555
523.586914	7314.650391
522.353516	7256.215820
521.119141	7363.926270
519.884766	7169.806152
518.650391	7350.382324
517.415039	7188.746094
516.179688	7304.466309
514.944336	7120.656250
513.708984	7153.394043
