#Wave		#Intensity
1585.210938	8217.254883
1584.209961	8132.334961
1583.208984	8240.523438
1582.208008	8066.550293
1581.206055	8192.179688
1580.204102	8130.588867
1579.202148	7974.210938
1578.200195	8264.419922
1577.198242	8123.042969
1576.195313	8141.308594
1575.192383	8114.691895
1574.189453	8147.905762
1573.186523	8220.977539
1572.182617	8328.897461
1571.178711	8073.098145
1570.174805	8198.437500
1569.170898	8256.497070
1568.166992	8207.488281
1567.162109	8153.522949
1566.158203	8298.646484
1565.153320	8110.340820
1564.147461	8287.748047
1563.142578	8166.665527
1562.136719	8212.213867
1561.130859	8354.688477
1560.125000	8521.956055
1559.119141	8500.313477
1558.113281	8809.082031
1557.106445	8707.909180
1556.099609	8966.842773
1555.092773	8888.022461
1554.084961	8898.592773
1553.078125	9038.205078
1552.070313	8919.719727
1551.062500	8907.951172
1550.054688	9223.561523
1549.045898	8919.139648
1548.038086	8860.274414
1547.029297	8727.075195
1546.020508	8695.531250
1545.011719	8716.029297
1544.001953	8731.563477
1542.992188	8551.446289
1541.982422	8406.067383
1540.972656	8409.277344
1539.962891	8320.912109
1538.952148	8519.622070
1537.942383	8441.165039
1536.931641	8132.709473
1535.919922	8190.375977
1534.909180	8243.073242
1533.897461	8167.209473
1532.886719	8051.833984
1531.874023	8082.288574
1530.862305	8147.315430
1529.850586	7918.400391
1528.837891	8114.309570
1527.825195	8122.504883
1526.812500	8024.558105
1525.799805	8042.639160
1524.786133	8070.581543
1523.772461	7994.906250
1522.758789	8082.037598
1521.745117	7934.882813
1520.731445	8039.246094
1519.716797	8062.229004
1518.702148	7986.632324
1517.687500	7935.703613
1516.672852	8049.832031
1515.657227	7966.895020
1514.642578	8085.893555
1513.626953	8047.293457
1512.610352	8148.996582
1511.594727	8198.983398
1510.579102	8096.417969
1509.562500	7752.848633
1508.545898	8051.259277
1507.529297	8002.877441
1506.511719	7907.810547
1505.494141	8068.375977
1504.477539	8000.362305
1503.458984	8168.210938
1502.441406	8166.518555
1501.423828	8204.116211
1500.405273	8207.327148
1499.386719	8190.898926
1498.368164	8054.228516
1497.348633	8199.773438
1496.330078	8261.853516
1495.310547	8230.710938
1494.291016	8385.935547
1493.271484	8357.230469
1492.250977	8296.674805
1491.231445	8290.054688
1490.210938	8366.736328
1489.190430	8222.931641
1488.168945	8267.758789
1487.148438	8300.323242
1486.126953	8271.675781
1485.105469	8240.590820
1484.083984	8434.639648
1483.061523	8234.728516
1482.040039	8350.426758
1481.017578	8353.585938
1479.995117	8337.184570
1478.971680	8533.454102
1477.949219	8443.704102
1476.925781	8542.132813
1475.902344	8704.035156
1474.878906	8839.003906
1473.855469	8807.868164
1472.831055	8820.689453
1471.806641	9106.882813
1470.782227	9209.929688
1469.757813	9161.662109
1468.733398	9411.014648
1467.708008	9809.032227
1466.682617	9880.147461
1465.657227	9987.800781
1464.631836	10200.212891
1463.605469	10490.514648
1462.579102	10546.809570
1461.552734	10871.019531
1460.526367	10812.750977
1459.500000	11010.161133
1458.472656	10956.754883
1457.445313	10762.211914
1456.417969	10633.447266
1455.390625	10516.899414
1454.362305	10470.934570
1453.334961	10147.767578
1452.306641	9990.059570
1451.277344	9766.786133
1450.249023	9682.129883
1449.219727	9517.325195
1448.191406	9284.570313
1447.162109	9195.208008
1446.131836	9161.730469
1445.102539	8999.597656
1444.072266	9063.262695
1443.041992	8988.578125
1442.011719	8782.908203
1440.981445	8936.329102
1439.950195	8728.329102
1438.918945	8942.314453
1437.887695	8809.548828
1436.856445	8749.548828
1435.825195	8679.880859
1434.792969	8678.076172
1433.760742	8356.543945
1432.728516	8541.276367
1431.696289	8474.127930
1430.663086	8511.096680
1429.629883	8260.048828
1428.596680	8272.849609
1427.563477	8145.332031
1426.530273	8158.149902
1425.496094	8173.379883
1424.461914	8147.502930
1423.427734	8056.373047
1422.393555	8093.363281
1421.358398	8297.051758
1420.323242	8152.801758
1419.288086	8151.104980
1418.252930	8207.359375
1417.217773	8036.661621
1416.181641	8133.947754
1415.145508	8339.783203
1414.109375	8256.017578
1413.073242	8075.801270
1412.036133	8235.698242
1411.000000	8294.260742
1409.962891	8381.726563
1408.924805	8560.739258
1407.887695	8602.329102
1406.849609	8687.264648
1405.812500	8832.379883
1404.773438	9138.777344
1403.735352	9343.927734
1402.697266	9589.912109
1401.658203	9530.154297
1400.619141	9554.634766
1399.580078	9656.083984
1398.540039	9779.135742
1397.500977	9882.899414
1396.460938	9789.482422
1395.420898	9736.964844
1394.380859	9585.942383
1393.339844	9792.967773
1392.298828	9469.044922
1391.257813	9591.952148
1390.216797	9489.104492
1389.175781	9388.700195
1388.133789	9384.340820
1387.091797	9492.762695
1386.049805	9617.932617
1385.007813	9937.334961
1383.964844	9889.697266
1382.922852	10261.655273
1381.879883	10549.558594
1380.835938	10875.687500
1379.792969	11170.529297
1378.749023	11371.820313
1377.706055	11309.567383
1376.661133	11544.267578
1375.617188	11723.805664
1374.573242	11630.399414
1373.528320	11553.783203
1372.483398	11544.190430
1371.438477	11453.269531
1370.392578	11336.079102
1369.347656	11180.679688
1368.301758	10984.705078
1367.255859	10817.492188
1366.208984	10729.204102
1365.163086	10538.222656
1364.116211	10356.875000
1363.069336	10103.958984
1362.022461	10020.666992
1360.974609	9989.924805
1359.927734	10002.153320
1358.879883	9885.527344
1357.832031	9861.987305
1356.783203	9781.214844
1355.735352	9984.240234
1354.686523	10184.796875
1353.637695	10075.402344
1352.588867	10266.321289
1351.539063	10511.958984
1350.490234	10762.256836
1349.440430	10838.593750
1348.390625	11129.195313
1347.339844	11541.084961
1346.290039	11893.298828
1345.239258	12135.902344
1344.188477	12356.992188
1343.137695	12601.774414
1342.085938	12943.954102
1341.034180	13226.549805
1339.982422	13444.844727
1338.930664	13508.568359
1337.878906	13729.086914
1336.826172	13697.698242
1335.773438	13910.957031
1334.720703	13767.935547
1333.667969	13544.252930
1332.614258	13550.903320
1331.561523	13324.986328
1330.507813	13148.987305
1329.453125	12849.710938
1328.399414	12678.626953
1327.344727	12630.912109
1326.290039	12135.169922
1325.235352	11914.569336
1324.180664	11708.277344
1323.125000	11776.889648
1322.070313	11506.759766
1321.014648	11383.565430
1319.958008	11113.629883
1318.902344	10924.289063
1317.845703	10839.159180
1316.789063	10609.729492
1315.732422	10536.528320
1314.675781	10309.623047
1313.618164	10269.619141
1312.560547	10104.331055
1311.502930	9932.021484
1310.445313	9856.672852
1309.386719	9639.596680
1308.329102	9592.685547
1307.270508	9458.412109
1306.210938	9482.391602
1305.152344	9246.688477
1304.092773	9358.027344
1303.033203	9287.625000
1301.973633	9127.603516
1300.914063	9203.514648
1299.853516	9104.889648
1298.792969	8919.070313
1297.732422	8914.832031
1296.671875	8722.060547
1295.611328	8871.016602
1294.549805	8852.654297
1293.488281	8824.878906
1292.426758	8629.931641
1291.364258	8625.755859
1290.302734	8734.558594
1289.240234	8640.939453
1288.177734	8646.172852
1287.114258	8801.943359
1286.051758	8736.587891
1284.988281	8802.927734
1283.924805	8873.939453
1282.861328	8768.654297
1281.796875	9105.160156
1280.732422	9284.125000
1279.667969	9465.363281
1278.603516	9446.923828
1277.539063	9609.266602
1276.473633	9813.791016
1275.408203	10086.283203
1274.342773	10088.840820
1273.277344	9950.652344
1272.210938	10037.666016
1271.145508	10279.395508
1270.079102	10047.481445
1269.011719	9881.291016
1267.945313	9757.347656
1266.877930	9532.718750
1265.810547	9275.391602
1264.743164	9116.527344
1263.674805	9032.650391
1262.607422	8698.344727
1261.539063	8551.403320
1260.470703	8612.764648
1259.401367	8613.277344
1258.333008	8559.997070
1257.263672	8366.440430
1256.194336	8245.437500
1255.125000	8187.592285
1254.054688	8038.635742
1252.985352	8043.938477
1251.915039	7981.499512
1250.843750	7965.792480
1249.773438	7936.083008
1248.702148	7955.406738
1247.630859	7792.682129
1246.559570	7781.692871
1245.488281	7936.340332
1244.416016	7915.994629
1243.343750	7863.011230
1242.271484	7977.907715
1241.199219	7843.352051
1240.125977	7809.059082
1239.053711	7805.068359
1237.980469	7994.416504
1236.906250	7939.151367
1235.833008	8028.269043
1234.758789	7898.526367
1233.684570	7824.695801
1232.610352	7834.664551
1231.536133	7912.093750
1230.460938	7949.949219
1229.385742	7883.144043
1228.310547	7814.042480
1227.235352	7884.434082
1226.159180	7878.106445
1225.083008	7969.364258
1224.006836	7874.748047
1222.930664	8065.831543
1221.853516	8019.994141
1220.777344	8006.676758
1219.700195	7868.032227
1218.622070	8026.465332
1217.544922	7999.232910
1216.466797	7974.331055
1215.388672	7993.499512
1214.310547	7892.098145
1213.232422	8027.173828
1212.153320	8018.506836
1211.074219	8060.816895
1209.995117	8079.943359
1208.916016	8071.269043
1207.835938	8122.800781
1206.755859	7996.053711
1205.675781	8135.529785
1204.595703	8062.055664
1203.514648	8081.153320
1202.434570	8130.311035
1201.353516	8271.949219
1200.271484	8027.414551
1199.190430	8148.208984
1198.108398	8199.619141
1197.026367	7966.807617
1195.944336	7741.025879
1194.862305	7753.225586
1193.779297	7786.200684
1192.696289	7860.715820
1191.613281	7748.243652
1190.530273	7714.276855
1189.446289	7650.332031
1188.362305	7662.531250
1187.278320	7596.317383
1186.194336	7504.769531
1185.109375	7574.618652
1184.024414	7547.642578
1182.939453	7506.853027
1181.854492	7339.380371
1180.768555	7399.989746
1179.683594	7345.440430
1178.597656	7426.740723
1177.510742	7335.381348
1176.424805	7193.434570
1175.337891	7178.085449
1174.250977	7293.852051
1173.164063	7209.496094
1172.077148	7237.835938
1170.989258	7300.643555
1169.901367	7262.302246
1168.813477	7182.618652
1167.724609	7086.888184
1166.636719	7381.640137
1165.547852	7148.133301
1164.458984	7344.027344
1163.369141	7200.142578
1162.280273	7161.876465
1161.190430	7128.215332
1160.100586	7268.892578
1159.010742	7329.244629
1157.919922	7277.225098
1156.829102	7358.178711
1155.738281	7196.168945
1154.647461	7180.870117
1153.555664	7440.471191
1152.464844	7429.706055
1151.373047	7414.364746
1150.280273	7332.639648
1149.188477	7424.898926
1148.095703	7615.515625
1147.002930	7476.602539
1145.910156	7564.194336
1144.817383	7585.429688
1143.723633	7494.624512
1142.629883	7415.287109
1141.536133	7532.523926
1140.441406	7508.047852
1139.347656	7497.287598
1138.252930	7550.480469
1137.158203	7498.613770
1136.062500	7389.697266
1134.967773	7360.710449
1133.872070	7525.696777
1132.776367	7316.460938
1131.679688	7392.429199
1130.583984	7372.585938
1129.487305	7282.073242
1128.390625	7335.203125
1127.292969	7358.683105
1126.196289	7482.403809
1125.098633	7332.716309
1124.000977	7401.729004
1122.903320	7343.201172
1121.804688	7464.539063
1120.706055	7253.531250
1119.607422	7279.264648
1118.508789	7229.911621
1117.409180	7260.186523
1116.310547	7188.117676
1115.210938	7213.840332
1114.110352	7225.913086
1113.010742	7090.265625
1111.910156	7193.239746
1110.809570	7214.393555
1109.708984	7294.584473
1108.607422	7156.767090
1107.506836	7148.402344
1106.405273	7121.883789
1105.303711	7149.833984
1104.201172	7150.548828
1103.098633	7078.683594
1101.996094	7158.777832
1100.893555	7012.126953
1099.791016	7185.129883
1098.687500	7095.188477
1097.583984	7102.707031
1096.480469	7189.500977
1095.376953	7210.582520
1094.272461	6858.071289
1093.167969	6895.060059
1092.063477	6968.242188
1090.958008	6932.784180
1089.853516	7080.576660
1088.748047	6950.118652
1087.642578	7061.662598
1086.536133	7048.819824
1085.430664	7205.496582
1084.324219	7115.796875
1083.217773	6840.880859
1082.110352	7087.846680
1081.003906	7034.361328
1079.896484	6998.959961
1078.789063	7146.410156
1077.680664	6874.040527
1076.573242	7046.270996
1075.464844	7096.614258
1074.356445	7239.401367
1073.247070	7059.692383
1072.138672	7161.846680
1071.029297	7054.353516
1069.919922	7104.637207
1068.809570	7134.623047
1067.700195	6928.102539
1066.589844	7061.696289
1065.479492	7073.659180
1064.368164	7038.349121
1063.257813	7043.560059
1062.146484	6956.523926
1061.035156	7089.962402
1059.922852	7079.414551
1058.811523	7050.883301
1057.699219	6909.970703
1056.586914	6957.899414
1055.473633	7057.484863
1054.361328	7213.186035
1053.248047	7018.456543
1052.134766	6895.665527
1051.021484	6941.296875
1049.907227	7063.217773
1048.792969	7079.620117
1047.678711	6929.999512
1046.564453	7074.270508
1045.449219	7090.657227
1044.333984	7104.794434
1043.218750	6966.504395
1042.103516	7274.229980
1040.987305	7012.735352
1039.871094	7047.034668
1038.754883	6996.217285
1037.638672	7111.108398
1036.521484	7161.031250
1035.404297	7112.458008
1034.287109	7070.618164
1033.169922	7221.182129
1032.051758	7197.228027
1030.933594	7007.815430
1029.815430	7167.234375
1028.697266	7310.937012
1027.578125	7177.486816
1026.458984	7260.802246
1025.339844	7239.100586
1024.220703	7344.695313
1023.100586	7394.427734
1021.980469	7457.529785
1020.860352	7299.671875
1019.740234	7367.228516
1018.619141	7448.138184
1017.498047	7355.059082
1016.376953	7424.786621
1015.255859	7371.877441
1014.133789	7412.596191
1013.011719	7288.409668
1011.889648	7293.484375
1010.767578	7476.732422
1009.644531	7397.146484
1008.521484	7281.975586
1007.398438	7494.037598
1006.274414	7323.263672
1005.151367	7228.206543
1004.027344	7195.469238
1002.902344	7374.003906
1001.778320	7365.703613
1000.653320	7432.981445
999.528320	7269.110352
998.403320	7296.385742
997.278320	7257.009277
996.152344	7250.961914
995.026367	7149.442871
993.900391	7272.170898
992.773438	7139.619629
991.646484	7197.947266
990.519531	7138.675781
989.392578	7234.680664
988.265625	7170.991211
987.137695	7306.849121
986.009766	7245.387207
984.881836	7219.405762
983.752930	7237.744141
982.624023	7189.625488
981.495117	7331.968750
980.366211	7015.963379
979.236328	7180.415039
978.106445	7276.191406
976.976563	7148.465820
975.846680	7071.671875
974.715820	7158.561035
973.585938	6993.357910
972.454102	7089.066406
971.323242	7156.001953
970.191406	7141.154785
969.060547	6929.710449
967.927734	7109.270020
966.795898	7207.051270
965.663086	7123.769043
964.530273	7431.173340
963.397461	7314.778809
962.264648	7304.327148
961.130859	7404.158691
959.997070	7314.307129
958.863281	7436.136719
957.729492	7359.541504
956.594727	7494.527344
955.459961	7415.748535
954.325195	7493.391602
953.189453	7293.528320
952.053711	7221.450195
950.917969	7081.166992
949.782227	7094.993164
948.646484	7245.224121
947.509766	7041.236328
946.373047	7162.821777
945.235352	7024.903320
944.098633	7036.525391
942.960938	7127.259766
941.823242	7064.146484
940.685547	7146.046387
939.546875	7100.525391
938.408203	7167.008789
937.269531	7242.243164
936.129883	7176.976074
934.991211	7219.258789
933.851563	7274.684570
932.711914	7180.938965
931.571289	7218.804688
930.431641	7339.961914
929.291016	7382.157715
928.149414	7235.876953
927.008789	7383.237305
925.867188	7337.777832
924.725586	7259.489746
923.583984	7093.659668
922.441406	7282.507324
921.299805	7088.295410
920.157227	7290.186035
919.013672	7174.806152
917.871094	6958.877930
916.727539	6817.385254
915.583984	6793.998047
914.439453	6903.934570
913.295898	6887.092285
912.151367	6968.559082
911.006836	6827.219727
909.861328	6823.504883
908.716797	6872.184082
907.571289	6918.658203
906.424805	6897.467285
905.279297	6845.743652
904.132813	6698.075195
902.986328	6984.408203
901.839844	6958.858887
900.692383	6944.218262
899.545898	6818.449219
898.398438	6851.775391
897.250000	6856.770020
896.102539	6750.702148
894.954102	6997.380859
893.805664	6856.500977
892.656250	6824.493164
891.507813	6777.268555
890.358398	6975.862793
889.208984	6804.666016
888.058594	6898.800781
886.908203	6851.600098
885.758789	6728.356445
884.607422	6783.333496
883.457031	6623.230957
882.305664	6841.088867
881.154297	6776.581055
880.002930	6714.271973
878.850586	6693.226563
877.698242	6752.473633
876.545898	6670.686523
875.393555	6686.533691
874.240234	6750.076660
873.086914	6835.269531
871.933594	6671.174805
870.780273	6739.010742
869.625977	6650.834473
868.471680	6718.643066
867.317383	6756.104492
866.162109	6674.477051
865.007813	6701.108398
863.852539	6662.808105
862.696289	6507.697754
861.541016	6698.732910
860.384766	6677.757813
859.228516	6669.763184
858.072266	6717.970703
856.915039	6519.799805
855.757813	6656.600098
854.600586	6735.017090
853.442383	6573.687500
852.285156	6658.563477
851.126953	6698.070801
849.968750	6674.974609
848.809570	6718.774414
847.650391	6671.954590
846.491211	6497.914551
845.332031	6727.150879
844.171875	6686.826172
843.012695	6622.812500
841.851563	6420.928223
840.691406	6753.373047
839.530273	6622.621582
838.369141	6636.193359
837.208008	6682.049805
836.046875	6538.488281
834.884766	6620.924316
833.722656	6453.776367
832.560547	6645.882813
831.397461	6680.930664
830.234375	6528.929688
829.071289	6591.928223
827.908203	6624.813965
826.744141	6651.239258
825.580078	6593.885742
824.416016	6633.188965
823.251953	6545.808594
822.086914	6713.886719
820.921875	6519.231934
819.756836	6603.567383
818.590820	6741.487793
817.425781	6598.423828
816.259766	6611.932129
815.092773	6599.712402
813.926758	6542.495117
812.759766	6620.280273
811.592773	6612.349121
810.424805	6593.713867
809.257813	6566.521973
808.089844	6654.931152
806.920898	6497.193848
805.752930	6525.669922
804.583984	6519.906738
803.415039	6516.284668
802.246094	6531.906250
801.076172	6417.125977
799.906250	6513.973145
798.736328	6486.850098
797.566406	6399.926758
796.395508	6518.066895
795.224609	6629.747070
794.053711	6685.873535
792.881836	6658.739258
791.710938	6706.297852
790.538086	6824.230957
789.366211	6754.427246
788.194336	6742.226074
787.021484	6802.510254
785.848633	6852.110352
784.674805	6671.559570
783.500977	6559.261230
782.327148	6649.347656
781.153320	6713.840332
779.979492	6590.963379
778.804688	6649.053711
777.629883	6509.222656
776.454102	6654.527832
775.279297	6659.389648
774.103516	6481.374512
772.927734	6554.302734
771.750977	6478.414551
770.575195	6530.059082
769.398438	6445.711914
768.220703	6490.967285
767.043945	6616.895508
765.866211	6685.443359
764.688477	6569.297363
763.510742	6586.894043
762.332031	6716.925781
761.153320	6636.909668
759.974609	6614.185547
758.794922	6907.370117
757.616211	6774.372070
756.436523	6902.090820
755.255859	6951.359375
754.076172	7108.632813
752.895508	7183.243164
751.714844	7378.500000
750.533203	7374.693848
749.352539	7614.257324
748.170898	7912.952148
746.988281	8264.391602
745.806641	8793.311523
744.624023	9455.190430
743.441406	10408.472656
742.258789	11902.333008
741.075195	13528.617188
739.891602	15363.280273
738.708008	17271.017578
737.523438	19032.191406
736.339844	20433.701172
735.155273	20770.906250
733.969727	20977.136719
732.785156	20221.355469
731.599609	18890.166016
730.414063	17460.486328
729.227539	15432.785156
728.041992	13696.852539
726.855469	11957.500977
725.667969	10829.851563
724.481445	9706.929688
723.293945	8923.524414
722.106445	8329.938477
720.918945	8012.331055
719.730469	7598.078125
718.541992	7375.448242
717.353516	7180.261719
716.164063	7153.379883
714.975586	6903.674805
713.786133	6754.967285
712.595703	6747.111328
711.406250	6806.482910
710.215820	6578.087891
709.025391	6505.182617
707.833984	6505.786133
706.642578	6581.947266
705.451172	6402.073730
704.259766	6547.452637
703.068359	6569.017578
701.875977	6456.370605
700.683594	6433.921387
699.490234	6514.182617
698.297852	6491.729492
697.104492	6408.531250
695.910156	6658.395508
694.716797	6638.017090
693.522461	6797.690918
692.328125	6670.542969
691.132813	6769.450195
689.938477	6901.785156
688.743164	6883.462891
687.547852	6875.604004
686.351563	6982.733887
685.155273	6901.699219
683.958984	6812.342773
682.762695	6808.684082
681.565430	6725.655762
680.368164	6667.723633
679.170898	6639.045898
677.973633	6650.039551
676.775391	6629.725586
675.577148	6707.476563
674.378906	6541.149902
673.179688	6525.044434
671.980469	6669.480469
670.781250	6628.338867
669.581055	6699.746582
668.381836	6806.539551
667.181641	6690.407715
665.980469	6792.987305
664.780273	6676.910645
663.579102	6654.555176
662.377930	6856.959473
661.175781	6932.356934
659.973633	7180.364258
658.771484	6845.974121
657.569336	7043.987305
656.367188	7119.270020
655.164063	7225.689453
653.960938	7188.700684
652.756836	7482.000488
651.552734	7424.201660
650.348633	7513.840332
649.144531	7524.559570
647.939453	7558.100586
646.735352	7647.645020
645.529297	7652.101074
644.324219	7596.413574
643.118164	7696.251953
641.912109	7356.596680
640.706055	7574.569336
639.499023	7533.452637
638.292969	7405.354004
637.084961	7399.500488
635.877930	7488.890625
634.669922	7433.339355
633.461914	7412.995117
632.253906	7525.077637
631.044922	7676.410645
629.836914	7585.708008
628.626953	7730.752930
627.417969	7582.199219
626.208008	7489.513184
624.998047	7467.119141
623.788086	7324.924805
622.577148	7354.208496
621.366211	7179.069336
620.155273	6981.304199
618.944336	6895.073730
617.732422	6771.743164
616.520508	6813.495117
615.308594	6745.923340
614.095703	6612.402344
612.882813	6586.135254
611.669922	6452.711914
610.457031	6391.465820
609.243164	6544.482422
608.029297	6431.755371
606.815430	6249.073730
605.600586	6389.665039
604.385742	6353.198242
603.170898	6431.972168
601.955078	6327.627441
600.740234	6243.896973
599.524414	6341.145508
598.307617	6193.724121
597.091797	6270.386719
595.875000	6281.262207
594.658203	6361.976563
593.440430	6346.125977
592.222656	6356.975098
591.004883	6312.393066
589.787109	6335.558105
588.568359	6430.527344
587.349609	6371.598145
586.130859	6263.474121
584.912109	6356.342285
583.692383	6369.218262
582.472656	6525.551758
581.251953	6425.687012
580.032227	6522.526855
578.811523	6611.128906
577.589844	6499.026855
576.369141	6491.378418
575.147461	6487.826660
573.925781	6672.522461
572.703125	6542.097168
571.481445	6661.247070
570.258789	6886.667969
569.035156	6737.883789
567.812500	6801.722168
566.588867	6871.660645
565.365234	6906.837891
564.140625	6768.396973
562.916992	6915.885254
561.692383	6799.961426
560.466797	6798.383789
559.242188	6702.944824
558.016602	6713.629883
556.791016	6779.376465
555.564453	6647.304199
554.337891	6733.420410
553.111328	6658.486328
551.884766	6608.038086
550.657227	6651.322266
549.429688	6568.311035
548.202148	6605.475098
546.974609	6691.478516
545.746094	6575.950684
544.517578	6541.867676
543.288086	6517.971680
542.058594	6697.471680
540.829102	6681.683594
539.599609	6598.816406
538.370117	6562.733398
537.139648	6740.022949
535.909180	6653.135254
534.677734	6663.777344
533.446289	6576.947266
532.214844	6601.811523
530.983398	6571.864258
529.750977	6527.726563
528.519531	6597.214355
527.286133	6478.047852
526.053711	6494.793457
524.820313	6450.712891
523.586914	6487.724121
522.353516	6601.717773
521.119141	6679.192383
519.884766	6432.572266
518.650391	6410.829590
517.415039	6526.757813
516.179688	6592.033203
514.944336	6289.002441
513.708984	6372.508789
