#Wave		#Intensity
1585.210938	5165.131836
1584.209961	5155.141113
1583.208984	5134.095703
1582.208008	5197.944336
1581.206055	5204.355469
1580.204102	5046.056152
1579.202148	5114.872559
1578.200195	5238.540039
1577.198242	5155.151855
1576.195313	5154.083984
1575.192383	5182.932129
1574.189453	5174.381348
1573.186523	5106.026855
1572.182617	5219.575684
1571.178711	5036.656738
1570.174805	4955.920410
1569.170898	4992.242676
1568.166992	5115.677734
1567.162109	5042.440918
1566.158203	5218.069824
1565.153320	5197.086426
1564.147461	5106.466797
1563.142578	5070.594238
1562.136719	5074.516602
1561.130859	5018.778809
1560.125000	5074.900391
1559.119141	4976.944824
1558.113281	5119.999512
1557.106445	5116.455566
1556.099609	5093.047363
1555.092773	5216.127441
1554.084961	5143.063965
1553.078125	5102.292480
1552.070313	5108.679688
1551.062500	5112.583008
1550.054688	5022.240234
1549.045898	5026.159668
1548.038086	5059.826660
1547.029297	5105.872070
1546.020508	5030.472656
1545.011719	5180.562012
1544.001953	4954.078613
1542.992188	5161.081543
1541.982422	5157.536621
1540.972656	5097.057129
1539.962891	5145.501465
1538.952148	5320.124023
1537.942383	5153.267090
1536.931641	5068.102539
1535.919922	5220.375488
1534.909180	5061.059570
1533.897461	5017.988770
1532.886719	5026.835449
1531.874023	5075.212402
1530.862305	4962.994629
1529.850586	5092.870117
1528.837891	5131.325195
1527.825195	5061.135254
1526.812500	5104.517578
1525.799805	5110.863770
1524.786133	5040.720703
1523.772461	5101.347168
1522.758789	5127.419922
1521.745117	5064.713867
1520.731445	5098.178711
1519.716797	5065.081543
1518.702148	5137.959961
1517.687500	5171.388184
1516.672852	5044.692871
1515.657227	5134.768555
1514.642578	5067.225586
1513.626953	5073.561035
1512.610352	4986.368652
1511.594727	5032.088867
1510.579102	5058.108887
1509.562500	5005.408203
1508.545898	4999.453125
1507.529297	5013.169434
1506.511719	5090.791504
1505.494141	5136.431641
1504.477539	5132.910645
1503.458984	5090.084961
1502.441406	4985.874512
1501.423828	5112.532227
1500.405273	5045.186035
1499.386719	4926.321289
1498.368164	5045.549805
1497.348633	4965.990723
1496.330078	5036.100098
1495.310547	5039.961426
1494.291016	5004.588867
1493.271484	5025.615723
1492.250977	5152.026855
1491.231445	4979.423828
1490.210938	5081.291504
1489.190430	5026.350098
1488.168945	4993.471191
1487.148438	5085.478516
1486.126953	5062.392578
1485.105469	4985.472168
1484.083984	5160.619141
1483.061523	5117.959961
1482.040039	5153.587891
1481.017578	5277.236328
1479.995117	5131.891602
1478.971680	5113.716797
1477.949219	5261.734863
1476.925781	5199.559082
1475.902344	5220.466797
1474.878906	5314.637207
1473.855469	5340.395996
1472.831055	5432.060547
1471.806641	5306.449707
1470.782227	5146.725098
1469.757813	5306.687988
1468.733398	5327.541504
1467.708008	5545.932617
1466.682617	5325.331543
1465.657227	5385.172363
1464.631836	5413.302734
1463.605469	5409.742676
1462.579102	5498.764160
1461.552734	5429.420410
1460.526367	5559.799805
1459.500000	5517.254395
1458.472656	5421.171875
1457.445313	5566.073730
1456.417969	5487.053223
1455.390625	5612.418945
1454.362305	5565.040527
1453.334961	5566.316895
1452.306641	5601.629883
1451.277344	5551.851563
1450.249023	5589.583008
1449.219727	5542.256836
1448.191406	5497.379395
1447.162109	5530.239746
1446.131836	5414.963867
1445.102539	5586.208008
1444.072266	5495.240234
1443.041992	5467.404785
1442.011719	5475.973633
1440.981445	5453.004395
1439.950195	5580.407227
1438.918945	5445.888672
1437.887695	5592.633301
1436.856445	5448.472656
1435.825195	5427.954590
1434.792969	5531.001953
1433.760742	5418.431641
1432.728516	5451.208496
1431.696289	5399.230469
1430.663086	5439.259277
1429.629883	5343.741211
1428.596680	5178.092285
1427.563477	5339.099609
1426.530273	5168.682617
1425.496094	5385.241699
1424.461914	5333.350586
1423.427734	5276.646484
1422.393555	5183.715820
1421.358398	5243.040527
1420.323242	5169.480469
1419.288086	5165.989258
1418.252930	5230.109375
1417.217773	5347.313477
1416.181641	5145.868652
1415.145508	5185.820313
1414.109375	5232.993164
1413.073242	5210.194336
1412.036133	5122.291016
1411.000000	5232.135742
1409.962891	5161.137695
1408.924805	5263.697754
1407.887695	5151.758789
1406.849609	5247.050293
1405.812500	5335.075684
1404.773438	5235.231445
1403.735352	5248.585938
1402.697266	5182.500000
1401.658203	5325.815918
1400.619141	5271.771484
1399.580078	5241.805176
1398.540039	5392.233887
1397.500977	5427.178223
1396.460938	5317.862305
1395.420898	5307.138672
1394.380859	5195.489258
1393.339844	5276.093750
1392.298828	5303.818359
1391.257813	5209.049316
1390.216797	5292.000977
1389.175781	5257.288086
1388.133789	5263.391113
1387.091797	5240.696289
1386.049805	5282.785645
1385.007813	5360.836426
1383.964844	5278.182129
1382.922852	5243.513672
1381.879883	5199.271484
1380.835938	5224.547852
1379.792969	5316.903809
1378.749023	5239.134277
1377.706055	5312.287109
1376.661133	5210.604980
1375.617188	5168.816895
1374.573242	5160.555664
1373.528320	5214.518066
1372.483398	5237.353516
1371.438477	5207.553711
1370.392578	5256.687988
1369.347656	5219.722656
1368.301758	5366.847168
1367.255859	5203.199219
1366.208984	5240.344238
1365.163086	5387.370605
1364.116211	5195.157227
1363.069336	5323.026367
1362.022461	5245.510254
1360.974609	5258.734863
1359.927734	5252.860840
1358.879883	5289.938477
1357.832031	5353.241699
1356.783203	5187.549805
1355.735352	5253.231934
1354.686523	5235.443359
1353.637695	5150.920898
1352.588867	5199.886719
1351.539063	5317.926270
1350.490234	5328.722656
1349.440430	5291.882324
1348.390625	5226.483398
1347.339844	5322.992188
1346.290039	5276.654785
1345.239258	5339.796875
1344.188477	5331.540039
1343.137695	5240.035645
1342.085938	5272.229980
1341.034180	5273.501465
1339.982422	5455.431152
1338.930664	5185.731445
1337.878906	5246.421387
1336.826172	5321.339844
1335.773438	5436.602539
1334.720703	5228.871094
1333.667969	5443.816406
1332.614258	5423.684570
1331.561523	5356.098633
1330.507813	5416.661133
1329.453125	5263.708496
1328.399414	5331.379395
1327.344727	5446.443359
1326.290039	5388.404297
1325.235352	5325.648926
1324.180664	5407.465820
1323.125000	5339.993652
1322.070313	5355.451172
1321.014648	5342.484375
1319.958008	5367.404785
1318.902344	5335.503418
1317.845703	5476.378418
1316.789063	5416.073242
1315.732422	5424.395996
1314.675781	5418.523926
1313.618164	5521.427734
1312.560547	5387.873535
1311.502930	5500.193848
1310.445313	5475.404297
1309.386719	5344.305664
1308.329102	5560.497559
1307.270508	5394.010742
1306.210938	5515.654297
1305.152344	5616.000000
1304.092773	5456.686035
1303.033203	5597.115723
1301.973633	5470.899902
1300.914063	5592.396973
1299.853516	5631.306641
1298.792969	5349.556152
1297.732422	5520.501465
1296.671875	5448.636719
1295.611328	5515.816406
1294.549805	5484.028809
1293.488281	5456.964355
1292.426758	5566.482910
1291.364258	5468.785645
1290.302734	5453.509277
1289.240234	5315.872070
1288.177734	5338.276367
1287.114258	5405.362793
1286.051758	5383.055176
1284.988281	5344.298828
1283.924805	5373.728516
1282.861328	5168.124023
1281.796875	5425.500488
1280.732422	5332.733887
1279.667969	5296.375488
1278.603516	5262.380371
1277.539063	5284.744629
1276.473633	5276.584961
1275.408203	5298.936035
1274.342773	5213.350098
1273.277344	5299.039063
1272.210938	5258.048340
1271.145508	5308.519531
1270.079102	5223.002441
1269.011719	5336.740723
1267.945313	5080.194824
1266.877930	5266.540039
1265.810547	5152.995117
1264.743164	5112.093262
1263.674805	5295.970703
1262.607422	5229.306152
1261.539063	5094.801270
1260.470703	5126.478027
1259.401367	5214.284180
1258.333008	5185.112793
1257.263672	5069.436035
1256.194336	5173.562012
1255.125000	5291.666992
1254.054688	5267.175781
1252.985352	5114.197266
1251.915039	5171.506836
1250.843750	5235.797852
1249.773438	5239.355957
1248.702148	5163.544434
1247.630859	5073.761719
1246.559570	5014.350098
1245.488281	5164.919922
1244.416016	5210.469238
1243.343750	5057.791016
1242.271484	5049.721680
1241.199219	5109.250488
1240.125977	5024.270508
1239.053711	5151.344727
1237.980469	5078.038574
1236.906250	5160.797852
1235.833008	5250.506348
1234.758789	5084.108887
1233.684570	5094.663574
1232.610352	5070.310059
1231.536133	5062.250977
1230.460938	5126.298340
1229.385742	5004.285156
1228.310547	5038.092773
1227.235352	5067.236816
1226.159180	5107.987305
1225.083008	5174.278320
1224.006836	4899.068848
1222.930664	4970.020020
1221.853516	5045.583984
1220.777344	4991.114746
1219.700195	5099.134766
1218.622070	4968.101074
1217.544922	5057.519531
1216.466797	5035.564941
1215.388672	5150.438477
1214.310547	5121.517090
1213.232422	5106.515625
1212.153320	5026.630371
1211.074219	5030.190918
1209.995117	5022.166504
1208.916016	5055.833496
1207.835938	5017.705078
1206.755859	5009.687500
1205.675781	4966.955078
1204.595703	4984.405273
1203.514648	5108.269531
1202.434570	5084.046875
1201.353516	5018.208008
1200.271484	4836.794922
1199.190430	5025.306641
1198.108398	4920.233887
1197.026367	4972.323242
1195.944336	4952.777832
1194.862305	4995.599121
1193.779297	4985.292969
1192.696289	5065.025391
1191.613281	4939.303223
1190.530273	4995.934570
1189.446289	5011.013672
1188.362305	4956.887207
1187.278320	4999.640625
1186.194336	5019.318848
1185.109375	4946.783691
1184.024414	4908.848633
1182.939453	4905.491211
1181.854492	4927.474609
1180.768555	4990.905273
1179.683594	4828.648438
1178.597656	4933.510742
1177.510742	4828.876465
1176.424805	4963.607910
1175.337891	4861.312500
1174.250977	4779.761719
1173.164063	4900.617676
1172.077148	5021.420898
1170.989258	4893.913574
1169.901367	4828.511719
1168.813477	4930.870117
1167.724609	4812.651855
1166.636719	4990.760254
1165.547852	4907.022461
1164.458984	4850.869141
1163.369141	4911.796387
1162.280273	4885.496582
1161.190430	4893.621582
1160.100586	4757.236816
1159.010742	5024.522949
1157.919922	5037.196777
1156.829102	4887.114258
1155.738281	4897.520020
1154.647461	4901.046875
1153.555664	4966.422852
1152.464844	5022.609375
1151.373047	4854.371094
1150.280273	4924.292480
1149.188477	4957.562012
1148.095703	4613.245117
1147.002930	4822.729004
1145.910156	4904.031738
1144.817383	4870.957520
1143.723633	4835.610352
1142.629883	4896.283691
1141.536133	4950.074707
1140.441406	4969.568848
1139.347656	4938.798340
1138.252930	4967.421387
1137.158203	5039.415527
1136.062500	4958.425293
1134.967773	4925.399414
1133.872070	4855.876953
1132.776367	4859.389648
1131.679688	4940.450684
1130.583984	5000.953125
1129.487305	4990.750977
1128.390625	4964.596680
1127.292969	5038.726563
1126.196289	4925.991699
1125.098633	4947.704590
1124.000977	4958.019531
1122.903320	4959.222656
1121.804688	4971.806641
1120.706055	4859.206055
1119.607422	4960.549316
1118.508789	4927.623535
1117.409180	4871.967285
1116.310547	4859.540527
1115.210938	4860.759766
1114.110352	4880.162109
1113.010742	4874.557617
1111.910156	4887.131836
1110.809570	4820.196289
1109.708984	4944.056641
1108.607422	4868.054688
1107.506836	4914.668457
1106.405273	4865.939941
1105.303711	4955.645020
1104.201172	4827.527832
1103.098633	4801.529297
1101.996094	4827.696289
1100.893555	4847.050293
1099.791016	4802.930664
1098.687500	4960.513672
1097.583984	4932.246582
1096.480469	4847.363770
1095.376953	4844.043945
1094.272461	4972.044922
1093.167969	4927.953125
1092.063477	4856.722168
1090.958008	4891.866699
1089.853516	4809.363281
1088.748047	4993.771973
1087.642578	4924.848145
1086.536133	4968.988281
1085.430664	4995.027344
1084.324219	4847.057617
1083.217773	4918.294922
1082.110352	4849.460449
1081.003906	4767.106445
1079.896484	4757.035156
1078.789063	4947.861816
1077.680664	4876.822754
1076.573242	4986.313965
1075.464844	4980.713379
1074.356445	4911.967773
1073.247070	4840.996582
1072.138672	4914.329590
1071.029297	4897.479004
1069.919922	4889.648926
1068.809570	4841.270996
1067.700195	4855.978516
1066.589844	4859.419922
1065.479492	4862.859375
1064.368164	4900.059570
1063.257813	4867.482422
1062.146484	4803.421387
1061.035156	4930.583008
1059.922852	4900.268066
1058.811523	4807.011719
1057.699219	4893.625977
1056.586914	4748.721191
1055.473633	4922.938477
1054.361328	4881.424316
1053.248047	4772.550781
1052.134766	4760.277344
1051.021484	4864.744629
1049.907227	4769.411621
1048.792969	4754.901855
1047.678711	4883.978027
1046.564453	4847.019043
1045.449219	4783.166504
1044.333984	4817.987793
1043.218750	4727.270996
1042.103516	4840.522949
1040.987305	4846.181152
1039.871094	4851.836426
1038.754883	4758.950684
1037.638672	4811.641113
1036.521484	4808.344727
1035.404297	4923.665039
1034.287109	4781.617676
1033.169922	4778.328613
1032.051758	4835.428223
1030.933594	4852.252441
1029.815430	4862.362793
1028.697266	4809.885742
1027.578125	4826.703613
1026.458984	4796.597656
1025.339844	4791.074219
1024.220703	4798.951172
1023.100586	4838.081055
1021.980469	4843.711426
1020.860352	4751.146973
1019.740234	4921.897461
1018.619141	4907.428711
1017.498047	4863.973633
1016.376953	4876.278809
1015.255859	4962.140625
1014.133789	4796.123535
1013.011719	4730.447754
1011.889648	4782.868164
1010.767578	4688.270020
1009.644531	4705.048340
1008.521484	4728.498047
1007.398438	4816.482910
1006.274414	4724.184082
1005.151367	4700.892578
1004.027344	4722.096191
1002.902344	4694.367188
1001.778320	4784.483887
1000.653320	4798.985352
999.528320	4826.813965
998.403320	4812.415039
997.278320	4809.129395
996.152344	4641.503906
995.026367	4684.883301
993.900391	4679.406738
992.773438	4673.931641
991.646484	4666.240234
990.519531	4687.390625
989.392578	4712.966309
988.265625	4647.618164
987.137695	4631.070313
986.009766	4583.499512
984.881836	4522.654297
983.752930	4650.145020
982.624023	4516.218750
981.495117	4714.515625
980.366211	4649.265625
979.236328	4606.178711
978.106445	4589.665527
976.976563	4626.258789
975.846680	4543.389160
974.715820	4608.724609
973.585938	4758.048340
972.454102	4535.941406
971.323242	4526.093750
970.191406	4776.973145
969.060547	4645.579102
967.927734	4604.792480
966.795898	4546.359863
965.663086	4563.009277
964.530273	4667.933594
963.397461	4647.036133
962.264648	4473.927734
961.130859	4598.650879
959.997070	4694.651855
958.863281	4733.289551
957.729492	4597.784668
956.594727	4643.037109
955.459961	4642.002930
954.325195	4733.479980
953.189453	4668.562988
952.053711	4647.707520
950.917969	4587.240234
949.782227	4665.441895
948.646484	4596.195801
947.509766	4619.367676
946.373047	4572.154297
945.235352	4575.531738
944.098633	4669.034668
942.960938	4635.026855
941.823242	4708.698730
940.685547	4650.531738
939.546875	4691.222656
938.408203	4738.481934
937.269531	4607.901855
936.129883	4692.469238
934.991211	4625.591797
933.851563	4688.178711
932.711914	4581.851563
931.571289	4618.105469
930.431641	4658.727539
929.291016	4734.400391
928.149414	4634.730469
927.008789	4576.730957
925.867188	4735.604492
924.725586	4666.658203
923.583984	4621.825684
922.441406	4798.093262
921.299805	4584.742188
920.157227	4666.856934
919.013672	4685.498535
917.871094	4625.401367
916.727539	4665.907715
915.583984	4616.770508
914.439453	4670.373047
913.295898	4612.516113
912.151367	4589.637207
911.006836	4575.503906
909.861328	4653.084473
908.716797	4523.242188
907.571289	4594.250977
906.424805	4516.848145
905.279297	4504.926758
904.132813	4558.442383
902.986328	4601.030762
901.839844	4597.817383
900.692383	4640.376953
899.545898	4578.319336
898.398438	4581.647949
897.250000	4704.772461
896.102539	4697.182129
894.954102	4746.201172
893.805664	4612.357422
892.656250	4728.833984
891.507813	4701.662109
890.358398	4650.575195
889.208984	4638.655273
888.058594	4587.604492
886.908203	4599.614746
885.758789	4618.138672
884.607422	4562.780273
883.457031	4750.739746
882.305664	4539.008301
881.154297	4505.416504
880.002930	4762.726563
878.850586	4648.797363
877.698242	4615.202637
876.545898	4605.485352
875.393555	4593.603027
874.240234	4709.658691
873.086914	4550.342773
871.933594	4594.831543
870.780273	4632.798828
869.625977	4581.926758
868.471680	4576.561035
867.317383	4579.859375
866.162109	4624.289063
865.007813	4740.125000
863.852539	4721.743164
862.696289	4720.677246
861.541016	4736.915039
860.384766	4800.719727
859.228516	4788.825195
858.072266	4850.426758
856.915039	4728.313477
855.757813	4729.405273
854.600586	4648.414551
853.442383	4688.395508
852.285156	4698.130371
851.126953	4692.750977
849.968750	4801.751953
848.809570	4617.269531
847.650391	4734.866211
846.491211	4669.095703
845.332031	4601.198730
844.171875	4613.090820
843.012695	4670.235840
841.851563	4567.908691
840.691406	4577.645020
839.530273	4613.221191
838.369141	4594.950195
837.208008	4621.894531
836.046875	4685.414063
834.884766	4561.702637
833.722656	4659.626465
832.560547	4643.514648
831.397461	4586.554688
830.234375	4512.421387
829.071289	4651.103027
827.908203	4660.791992
826.744141	4582.394531
825.580078	4542.693359
824.416016	4528.778320
823.251953	4622.212402
822.086914	4606.138672
820.921875	4643.718750
819.756836	4621.209961
818.590820	4583.696777
817.425781	4505.456055
816.259766	4594.478027
815.092773	4621.299316
813.926758	4573.103516
812.759766	4529.214355
811.592773	4500.338867
810.424805	4597.825195
809.257813	4401.946289
808.089844	4422.350586
806.920898	4391.384277
805.752930	4349.733398
804.583984	4466.393066
803.415039	4467.515137
802.246094	4500.708008
801.076172	4379.977051
799.906250	4473.013672
798.736328	4433.535645
797.566406	4428.253906
796.395508	4358.903809
795.224609	4389.938477
794.053711	4350.514160
792.881836	4407.146484
791.710938	4367.735352
790.538086	4319.808594
789.366211	4399.868164
788.194336	4411.659180
787.021484	4382.939941
785.848633	4435.222656
784.674805	4417.165039
783.500977	4313.901855
782.327148	4419.409668
781.153320	4403.495605
779.979492	4453.583496
778.804688	4399.357910
777.629883	4396.225586
776.454102	4412.241211
775.279297	4292.126465
774.103516	4289.020020
772.927734	4273.158691
771.750977	4308.315918
770.575195	4322.206543
769.398438	4355.210938
768.220703	4383.951660
767.043945	4293.762207
765.866211	4424.408691
764.688477	4332.127930
763.510742	4345.991699
762.332031	4258.013184
761.153320	4354.610352
759.974609	4406.629395
758.794922	4356.858887
757.616211	4326.187012
756.436523	4304.005859
755.255859	4315.732910
754.076172	4412.181641
752.895508	4309.522461
751.714844	4429.217285
750.533203	4248.280762
749.352539	4469.514160
748.170898	4377.512695
746.988281	4465.352051
745.806641	4529.887695
744.624023	4440.049316
743.441406	4405.210938
742.258789	4326.007813
741.075195	4475.029297
739.891602	4613.419922
738.708008	4536.334473
737.523438	4596.525391
736.339844	4582.806152
735.155273	4706.270996
733.969727	4555.385254
732.785156	4495.275391
731.599609	4618.674316
730.414063	4615.506348
729.227539	4643.959473
728.041992	4564.915039
726.855469	4610.222656
725.667969	4634.443359
724.481445	4618.636719
723.293945	4501.768555
722.106445	4519.681152
720.918945	4527.062012
719.730469	4441.856445
718.541992	4428.214355
717.353516	4420.887695
716.164063	4421.974609
714.975586	4282.212402
713.786133	4186.650391
712.595703	4328.573242
711.406250	4195.230469
710.215820	4223.669922
709.025391	4373.884766
707.833984	4217.529785
706.642578	4241.746094
705.451172	4163.131836
704.259766	4210.425293
703.068359	4207.359375
701.875977	4204.294922
700.683594	4167.688477
699.490234	4191.880859
698.297852	4167.866211
697.104492	4275.845703
695.910156	4268.578125
694.716797	4319.946289
693.522461	4145.188965
692.328125	4137.955566
691.132813	4199.779785
689.938477	4219.733398
688.743164	4235.494629
687.547852	4232.427734
686.351563	4198.002930
685.155273	4284.822266
683.958984	4200.248047
682.762695	4103.177734
681.565430	4212.934082
680.368164	4262.080566
679.170898	4286.151367
677.973633	4337.345215
676.775391	4334.258789
675.577148	4243.548340
674.378906	4257.170898
673.179688	4362.541504
671.980469	4221.849609
670.781250	4229.213867
669.581055	4253.245117
668.381836	4404.354004
667.181641	4301.273926
665.980469	4339.848145
664.780273	4343.010742
663.579102	4327.438477
662.377930	4361.816895
661.175781	4429.468262
659.973633	4405.565430
658.771484	4439.901367
657.569336	4347.395996
656.367188	4464.873535
655.164063	4428.514160
653.960938	4493.977051
652.756836	4470.090332
651.552734	4408.833496
650.348633	4526.159668
649.144531	4487.750977
647.939453	4532.370117
646.735352	4510.575195
645.529297	4374.703613
644.324219	4477.383789
643.118164	4509.522949
641.912109	4537.500977
640.706055	4484.642578
639.499023	4375.866699
638.292969	4441.141113
637.084961	4402.837402
635.877930	4395.607910
634.669922	4413.221680
633.461914	4468.078125
632.253906	4386.352539
631.044922	4416.366699
629.836914	4446.366699
628.626953	4236.510742
627.417969	4301.678711
626.208008	4370.949219
624.998047	4398.864746
623.788086	4379.255859
622.577148	4359.655762
621.366211	4288.445801
620.155273	4202.819336
618.944336	4247.250000
617.732422	4275.152832
616.520508	4251.472656
615.308594	4310.296387
614.095703	4338.165039
612.882813	4281.502930
611.669922	4284.633789
610.457031	4157.955566
609.243164	4274.410156
608.029297	4170.446289
606.815430	4243.604980
605.600586	4250.856445
604.385742	4245.755859
603.170898	4322.959961
601.955078	4112.135254
600.740234	4232.522949
599.524414	4163.689941
598.307617	4136.001953
597.091797	4122.712402
595.875000	4150.523438
594.658203	4135.182129
593.440430	4222.535645
592.222656	3915.617432
591.004883	4044.037109
589.787109	4057.466309
588.568359	4120.133789
587.349609	4180.720215
586.130859	4052.594727
584.912109	4041.403320
583.692383	3991.267578
582.472656	4096.915527
581.251953	4102.112793
580.032227	4078.627686
578.811523	4089.970459
577.589844	4117.688477
576.369141	4012.331055
575.147461	4128.058594
573.925781	4075.947510
572.703125	4134.327148
571.481445	4094.509277
570.258789	4073.112305
569.035156	4160.070801
567.812500	4210.200684
566.588867	4088.668701
565.365234	4240.933105
564.140625	4056.136475
562.916992	4093.991699
561.692383	4019.550781
560.466797	4083.928467
559.242188	4021.766846
558.016602	4100.393555
556.791016	4044.375244
555.564453	4061.788330
554.337891	4036.382813
553.111328	4059.903564
551.884766	4097.676270
550.657227	4007.090576
549.429688	4030.600830
548.202148	4011.339600
546.974609	4163.089355
545.746094	4172.299316
544.517578	4087.904297
543.288086	4058.475098
542.058594	4140.920898
540.829102	4066.758057
539.599609	4116.636719
538.370117	4048.610840
537.139648	4106.598145
535.909180	3993.912842
534.677734	4165.622559
533.446289	4099.677734
532.214844	4082.485352
530.983398	4162.722168
529.750977	4027.832764
528.519531	4120.216309
527.286133	4074.639404
526.053711	4126.414063
524.820313	4238.981934
523.586914	4227.863770
522.353516	4314.013672
521.119141	4238.056152
519.884766	4228.970703
518.650391	4215.839355
517.415039	4184.494141
516.179688	4159.234863
514.944336	4127.916504
513.708984	4092.566895
