#Wave		#Intensity
2109.224609	6303.270020
2107.712891	6295.000000
2106.201172	6230.801758
2104.687500	6250.946777
2103.175781	6272.736328
2101.662109	6358.965332
2100.150391	6289.852051
2098.636719	6305.011719
2097.123047	6392.829590
2095.607422	6214.780762
2094.093750	6337.246094
2092.578125	6312.772949
2091.064453	6215.708984
2089.548828	6265.508789
2088.033203	6216.327148
2086.517578	6280.946289
2085.000000	6335.645996
2083.484375	6205.716309
2081.966797	6258.760742
2080.449219	6278.831055
2078.931641	6264.301758
2077.414063	6353.529785
2075.894531	6317.586426
2074.376953	6335.980957
2072.857422	6306.639648
2071.337891	6320.092285
2069.818359	6274.316895
2068.298828	6276.257813
2066.777344	6393.303223
2065.257813	6405.082031
2063.736328	6262.351563
2062.214844	6249.503418
2060.693359	6364.811523
2059.171875	6190.972168
2057.648438	6325.950195
2056.126953	6275.335938
2054.603516	6283.839355
2053.080078	6300.544434
2051.556641	6277.862793
2050.033203	6265.033203
2048.507813	6209.565918
2046.984375	6237.751465
2045.458984	6328.223633
2043.933594	6269.500000
2042.408203	6258.325195
2040.882813	6248.793457
2039.355469	6255.645508
2037.830078	6334.553223
2036.302734	6303.725586
2034.775391	6297.466309
2033.248047	6312.485352
2031.718750	6191.687012
2030.191406	6349.048340
2028.662109	6172.684082
2027.134766	6177.905273
2025.605469	6243.615234
2024.076172	6167.092773
2022.544922	6137.994141
2021.015625	6231.445801
2019.484375	6243.183105
2017.955078	6148.761230
2016.423828	6157.245117
2014.892578	6258.774902
2013.359375	6205.212402
2011.828125	6234.891602
2010.294922	6186.250977
2008.761719	6212.659180
2007.230469	6154.260254
2005.695313	6128.492676
2004.162109	6189.126465
2002.628906	6166.621582
2001.093750	6178.341797
1999.558594	6185.169922
1998.023438	6226.196289
1996.488281	6197.189453
1994.953125	6212.148926
1993.417969	6166.881348
1991.880859	6194.858887
1990.343750	6169.136719
1988.806641	6190.595215
1987.269531	6226.680176
1985.732422	6145.688477
1984.193359	6181.767578
1982.656250	6073.192383
1981.117188	6149.891602
1979.578125	6067.360840
1978.039063	6155.396973
1976.500000	6163.831055
1974.958984	6022.905762
1973.417969	6218.018555
1971.878906	6161.523926
1970.337891	6189.417969
1968.796875	6123.221191
1967.253906	6193.274902
1965.712891	6232.493164
1964.169922	6127.424805
1962.626953	6126.123535
1961.083984	6171.812500
1959.541016	6173.742188
1957.998047	6131.940430
1956.455078	6130.639160
1954.910156	6265.329590
1953.365234	6092.428223
1951.820313	6207.649902
1950.275391	6178.828613
1948.730469	6104.727051
1947.183594	6232.810547
1945.638672	6128.007813
1944.091797	6125.091797
1942.544922	6222.381348
1940.998047	6183.897461
1939.449219	6189.048340
1937.902344	6113.438477
1936.353516	6150.898926
1934.804688	6133.450195
1933.255859	6107.938477
1931.707031	5996.905273
1930.158203	6026.290527
1928.607422	6129.866699
1927.058594	6062.444336
1925.507813	6128.882813
1923.957031	6029.246582
1922.406250	6094.051758
1920.853516	6110.486816
1919.302734	6099.526855
1917.750000	6249.644043
1916.197266	6014.814453
1914.644531	6066.672852
1913.091797	6126.557617
1911.539063	6057.667480
1909.984375	6202.807129
1908.431641	6047.060547
1906.876953	6039.347168
1905.322266	6087.917969
1903.767578	6025.538086
1902.210938	6165.708496
1900.656250	6016.561035
1899.099609	6000.828613
1897.542969	6073.449707
1895.986328	6056.105469
1894.429688	6143.134277
1892.873047	6021.438477
1891.314453	6028.189941
1889.755859	5988.404785
1888.199219	5958.261719
1886.640625	6045.218262
1885.080078	6067.994141
1883.521484	5960.896484
1881.960938	6126.339355
1880.402344	6144.275391
1878.841797	6102.920898
1877.281250	6040.758789
1875.720703	5989.833496
1874.158203	5986.966797
1872.597656	6028.925293
1871.035156	6035.653809
1869.472656	6048.780273
1867.910156	6085.898926
1866.347656	6162.990234
1864.783203	6054.541992
1863.220703	6013.291504
1861.656250	5980.050781
1860.091797	6050.705566
1858.527344	5889.643066
1856.962891	6043.356934
1855.396484	6014.928223
1853.832031	6018.448242
1852.265625	6034.738281
1850.699219	6060.598633
1849.132813	6083.255859
1847.566406	5981.455566
1845.998047	5981.787109
1844.431641	6010.825195
1842.863281	6017.528320
1841.294922	6035.386719
1839.726563	5978.329590
1838.156250	6061.520020
1836.587891	6001.294434
1835.017578	6025.511719
1833.449219	5933.469727
1831.878906	5984.756348
1830.306641	6059.897949
1828.736328	5955.174805
1827.166016	5955.508301
1825.593750	6044.924316
1824.021484	5994.344727
1822.449219	5983.538086
1820.876953	5963.197754
1819.304688	5993.727051
1817.730469	6041.723145
1816.158203	6034.092285
1814.583984	6078.882324
1813.009766	5907.673340
1811.435547	5968.348145
1809.859375	5946.451660
1808.285156	5943.608887
1806.708984	6013.757324
1805.132813	6077.529785
1803.556641	5882.745605
1801.980469	5929.075684
1800.404297	5946.848145
1798.826172	5970.953613
1797.248047	5942.751953
1795.671875	6008.041992
1794.093750	5990.932129
1792.513672	6054.600098
1790.935547	5970.984863
1789.355469	5985.554199
1787.777344	6085.584473
1786.197266	5968.784668
1784.617188	5973.852051
1783.035156	6058.003418
1781.455078	6099.421387
1779.873047	5936.865234
1778.292969	6044.681152
1776.710938	6054.466797
1775.128906	6042.127441
1773.544922	6044.010742
1771.962891	6118.544434
1770.378906	5960.925293
1768.794922	6111.223145
1767.212891	6073.628906
1765.626953	6152.826172
1764.042969	6149.948242
1762.458984	6049.273438
1760.873047	6052.726563
1759.287109	6000.992188
1757.701172	6037.557129
1756.115234	6036.281250
1754.529297	6134.275879
1752.941406	6065.237793
1751.355469	6063.955566
1749.767578	6152.432617
1748.179688	6280.231934
1746.591797	6090.017578
1745.001953	6096.598633
1743.414063	6103.176758
1741.824219	6149.078125
1740.234375	6111.604980
1738.644531	6072.575195
1737.054688	6223.780762
1735.462891	6202.032227
1733.873047	6274.576172
1732.281250	6285.817383
1730.689453	6199.668457
1729.097656	6237.616699
1727.505859	6311.660645
1725.912109	6358.986816
1724.320313	6279.171387
1722.726563	6277.842773
1721.132813	6317.301270
1719.539063	6295.575195
1717.945313	6335.012695
1716.349609	6311.723633
1714.755859	6247.691406
1713.160156	6318.454102
1711.564453	6259.146973
1709.968750	6450.490723
1708.371094	6478.880859
1706.775391	6452.457031
1705.177734	6499.618652
1703.580078	6380.860352
1701.982422	6557.891113
1700.384766	6360.949219
1698.787109	6484.729004
1697.187500	6502.120605
1695.587891	6653.958984
1693.990234	6588.461914
1692.390625	6501.113770
1690.789063	6521.610352
1689.189453	6665.503906
1687.587891	6512.599121
1685.988281	6609.589355
1684.386719	6592.577148
1682.785156	6584.936035
1681.181641	6667.804199
1679.580078	6724.114746
1677.976563	6688.373535
1676.373047	6668.241211
1674.769531	6774.406738
1673.166016	6783.881348
1671.562500	6833.871582
1669.957031	6849.561035
1668.353516	6954.038086
1666.748047	7019.533691
1665.142578	7148.843750
1663.537109	7127.087891
1661.929688	7150.478516
1660.324219	7156.741211
1658.716797	7229.901367
1657.109375	7323.250977
1655.501953	7310.809570
1653.894531	7536.261719
1652.285156	7733.637207
1650.677734	7725.777344
1649.068359	7553.213379
1647.458984	7916.683105
1645.849609	7908.788086
1644.240234	7998.725098
1642.628906	8097.938965
1641.019531	8266.958008
1639.408203	8449.872070
1637.796875	8345.673828
1636.185547	8685.163086
1634.572266	8765.511719
1632.960938	8847.375977
1631.347656	8995.864258
1629.734375	9057.495117
1628.121094	9139.244141
1626.507813	9385.173828
1624.894531	9477.659180
1623.279297	9498.870117
1621.664063	9695.021484
1620.048828	9945.264648
1618.433594	10133.498047
1616.818359	10265.950195
1615.203125	10508.175781
1613.585938	10843.091797
1611.968750	10986.129883
1610.351563	11209.493164
1608.734375	11418.850586
1607.117188	11540.038086
1605.498047	11752.324219
1603.878906	11746.729492
1602.261719	11830.704102
1600.640625	11931.625977
1599.021484	11810.221680
1597.402344	11676.523438
1595.781250	11629.286133
1594.162109	11791.866211
1592.541016	11718.404297
1590.919922	11902.481445
1589.296875	11866.024414
1587.675781	11778.718750
1586.052734	11854.793945
1584.429688	11829.152344
1582.806641	11949.851563
1581.183594	11950.378906
1579.560547	11920.112305
1577.935547	11949.890625
1576.312500	11938.102539
1574.687500	11974.018555
1573.062500	12177.597656
1571.435547	12096.554688
1569.810547	12281.566406
1568.183594	12243.580078
1566.558594	12259.406250
1564.931641	12242.953125
1563.304688	12286.424805
1561.675781	12162.447266
1560.048828	11875.735352
1558.419922	11922.325195
1556.791016	11829.204102
1555.162109	11794.441406
1553.533203	11724.401367
1551.904297	11749.502930
1550.273438	11664.164063
1548.642578	11640.196289
1547.011719	11723.554688
1545.380859	11698.050781
1543.750000	11686.347656
1542.119141	11647.071289
1540.486328	11659.891602
1538.853516	11488.931641
1537.220703	11390.005859
1535.587891	11275.814453
1533.955078	11054.538086
1532.320313	11018.502930
1530.685547	11045.204102
1529.052734	11071.892578
1527.416016	10919.658203
1525.781250	10857.689453
1524.146484	10890.511719
1522.509766	10773.559570
1520.873047	10514.568359
1519.236328	10605.486328
1517.599609	10571.135742
1515.962891	10440.607422
1514.324219	10050.625977
1512.687500	10002.678711
1511.048828	9759.439453
1509.410156	9511.728516
1507.771484	9384.614258
1506.130859	9227.056641
1504.492188	8981.141602
1502.851563	8999.023438
1501.210938	8930.034180
1499.570313	8847.361328
1497.927734	8755.584961
1496.287109	8683.644531
1494.644531	8602.598633
1493.001953	8685.990234
1491.359375	8796.741211
1489.716797	8698.983398
1488.074219	8767.085938
1486.429688	8873.181641
1484.785156	8815.004883
1483.140625	8817.663086
1481.496094	8808.161133
1479.851563	8821.456055
1478.207031	8681.294922
1476.560547	8597.395508
1474.914063	8522.643555
1473.267578	8625.566406
1471.621094	8415.738281
1469.972656	8372.942383
1468.326172	8307.405273
1466.677734	8334.432617
1465.029297	8481.264648
1463.380859	8479.430664
1461.732422	8570.073242
1460.082031	8446.963867
1458.431641	8625.464844
1456.783203	8534.210938
1455.132813	8656.569336
1453.480469	8560.803711
1451.830078	8540.781250
1450.177734	8663.056641
1448.527344	8621.831055
1446.875000	8688.050781
1445.220703	8572.712891
1443.568359	8523.969727
1441.916016	8472.222656
1440.261719	8397.820313
1438.607422	8429.250977
1436.953125	8471.244141
1435.298828	8223.149414
1433.642578	8147.352539
1431.988281	7982.491211
1430.332031	7897.719727
1428.675781	7948.835449
1427.019531	7842.978516
1425.361328	7636.076660
1423.705078	7625.366699
1422.046875	7605.611328
1420.388672	7712.521484
1418.730469	7563.109863
1417.072266	7623.259277
1415.412109	7555.299805
1413.753906	7598.851563
1412.093750	7508.333008
1410.433594	7517.239746
1408.773438	7622.495605
1407.111328	7563.638184
1405.451172	7533.398438
1403.789063	7405.375488
1402.126953	7516.578125
1400.464844	7445.761230
1398.802734	7420.081055
1397.138672	7471.076660
1395.474609	7532.569336
1393.812500	7487.352051
1392.146484	7463.184570
1390.482422	7430.015625
1388.818359	7565.039063
1387.152344	7489.825684
1385.486328	7507.702637
1383.820313	7572.089844
1382.154297	7607.942871
1380.488281	7546.282227
1378.820313	7600.119629
1377.154297	7680.919922
1375.486328	7593.798828
1373.818359	7643.092285
1372.148438	7774.770996
1370.480469	7864.447266
1368.810547	7942.102539
1367.140625	8076.621582
1365.470703	8139.225098
1363.800781	8011.721680
1362.130859	8050.368652
1360.458984	7931.915527
1358.787109	8016.927734
1357.115234	7901.522949
1355.443359	7765.237305
1353.771484	7700.756836
1352.097656	7548.135254
1350.423828	7649.569336
1348.751953	7650.878418
1347.076172	7583.489746
1345.402344	7602.728516
1343.728516	7701.073242
1342.052734	7736.692383
1340.376953	7896.139160
1338.701172	7906.338379
1337.025391	7636.143066
1335.347656	7662.795410
1333.671875	7592.535156
1331.994141	7537.209473
1330.316406	7386.539551
1328.638672	7392.363770
1326.960938	7460.741699
1325.281250	7439.741211
1323.601563	7424.704102
1321.921875	7475.166016
1320.242188	7440.780273
1318.562500	7398.970215
1316.880859	7373.539551
1315.201172	7362.991699
1313.519531	7290.000000
1311.837891	7202.174805
1310.154297	7328.398926
1308.472656	7377.301270
1306.789063	7304.368164
1305.105469	7330.975098
1303.421875	7381.327637
1301.738281	7609.803223
1300.054688	7545.785156
1298.369141	7533.731445
1296.683594	7673.005859
1294.998047	7675.759766
1293.312500	7774.900879
1291.626953	7819.142090
1289.939453	7747.747070
1288.253906	7791.973145
1286.566406	7816.917969
1284.878906	7776.674805
1283.189453	7823.824707
1281.501953	7974.596191
1279.812500	7881.052246
1278.123047	7913.345703
1276.433594	7763.629395
1274.744141	7689.422852
1273.052734	7587.147949
1271.363281	7607.645508
1269.671875	7631.090332
1267.980469	7524.459961
1266.289063	7544.955566
1264.595703	7470.891602
1262.904297	7475.141602
1261.210938	7384.880859
1259.517578	7333.044922
1257.824219	7378.648926
1256.128906	7247.148438
1254.435547	7226.358398
1252.740234	7233.602051
1251.044922	7178.904297
1249.349609	7249.552734
1247.652344	7262.680664
1245.957031	7205.062988
1244.259766	7250.608887
1242.562500	6901.349609
1240.865234	6969.031738
1239.167969	6930.669434
1237.468750	6920.293457
1235.769531	6752.442383
1234.072266	6752.409180
1232.371094	6652.339844
1230.671875	6677.330566
1228.972656	6750.834473
1227.271484	6599.376465
1225.570313	6618.480957
1223.869141	6636.106934
1222.167969	6561.168945
1220.464844	6574.392090
1218.763672	6495.094238
1217.060547	6542.092285
1215.357422	6511.274414
1213.654297	6696.191406
1211.949219	6747.512695
1210.246094	6597.853027
1208.541016	6729.830078
1206.835938	6643.286133
1205.130859	6605.153320
1203.423828	6734.106934
1201.718750	6813.185547
1200.011719	6770.643555
1198.304688	6712.010254
1196.597656	6890.604980
1194.888672	6801.228027
1193.181641	6771.895996
1191.472656	6881.583496
1189.763672	6719.121094
1188.054688	6771.729492
1186.343750	6759.974609
1184.634766	6834.477539
1182.923828	6796.403809
1181.212891	6901.550781
1179.501953	6824.032227
1177.791016	6784.523926
1176.078125	6788.840820
1174.365234	6834.033691
1172.652344	6820.820801
1170.939453	6762.375000
1169.226563	6883.407715
1167.511719	6983.964355
1165.798828	7110.724121
1164.083984	7104.750488
1162.369141	7030.268555
1160.652344	6976.222168
1158.937500	6923.656250
1157.220703	6926.466797
1155.503906	6809.855469
1153.787109	6617.583008
1152.070313	6643.749512
1150.351563	6602.957031
1148.632813	6569.457520
1146.916016	6506.877930
1145.195313	6490.866211
1143.476563	6479.223145
1141.757813	6403.621582
1140.037109	6370.201172
1138.316406	6333.889160
1136.595703	6354.249512
1134.875000	6177.072754
1133.152344	6181.485352
1131.429688	5953.615723
1129.708984	5849.218750
1127.984375	5740.515137
1126.261719	5853.827148
1124.539063	5620.433105
1122.814453	5581.458496
1121.089844	5549.750000
1119.365234	5409.346191
1117.640625	5529.847168
1115.914063	5311.275879
1114.187500	5408.567871
1112.462891	5326.246582
1110.734375	5349.652344
1109.007813	5235.535645
1107.281250	5311.047363
1105.552734	5260.650879
1103.824219	5218.955566
1102.095703	5222.109375
1100.367188	5339.482910
1098.636719	5276.113770
1096.908203	5296.593262
1095.177734	5166.797852
1093.447266	5370.747070
1091.714844	5157.229492
1089.984375	5164.720215
1088.251953	5156.328125
1086.519531	5046.914551
1084.787109	5087.610352
1083.054688	5054.716309
1081.320313	5040.585938
1079.585938	5089.905273
1077.851563	5074.330566
1076.117188	5149.561035
1074.382813	5037.437500
1072.648438	5116.962891
1070.912109	5059.626465
1069.175781	5042.633789
1067.439453	5050.122070
1065.701172	5084.952148
1063.964844	4842.049316
1062.226563	4953.156738
1060.488281	4975.039063
1058.750000	4876.122070
1057.011719	4965.579590
1055.271484	4925.638672
1053.531250	4984.866211
1051.791016	4897.528809
1050.050781	4861.937988
1048.310547	5033.145508
1046.568359	5013.331055
1044.826172	4898.793457
1043.083984	4853.187500
1041.341797	4952.504883
1039.599609	5034.563477
1037.855469	5106.546387
1036.113281	5012.187500
1034.369141	4986.672363
1032.623047	5001.293457
1030.878906	4895.560059
1029.132813	4961.760254
1027.386719	5007.880859
1025.640625	4922.261230
1023.894531	4875.327637
1022.148438	5013.022949
1020.400391	4864.506836
1018.652344	4863.390625
1016.904297	4855.124512
1015.156250	4874.026367
1013.406250	4827.165527
1011.658203	4808.907715
1009.908203	4836.378418
1008.158203	4800.984863
1006.408203	4712.766602
1004.656250	4695.977539
1002.904297	4813.376953
1001.152344	4925.012695
999.400391	4992.366211
997.648438	5021.173828
995.896484	4943.006348
994.142578	4954.701172
992.388672	4990.623047
990.634766	4960.970703
988.878906	4855.815430
987.125000	4913.101563
985.369141	4897.727539
983.613281	4838.221191
981.857422	4778.741699
980.099609	4700.787598
978.343750	4676.937988
976.585938	4752.675781
974.828125	4744.468262
973.070313	4655.217285
971.310547	4740.856934
969.552734	4738.341309
967.792969	4730.142578
966.033203	4731.891113
964.273438	4736.479004
962.511719	4738.224121
960.750000	4678.926270
958.990234	4747.388184
957.226563	4760.479492
955.464844	4817.541016
953.703125	4778.133301
951.939453	4772.773926
950.175781	4726.306152
948.412109	4764.895996
946.648438	4833.223145
944.882813	4724.440918
943.117188	4753.088867
941.351563	4729.332031
939.585938	4776.368164
937.820313	4742.708984
936.052734	4723.214844
934.285156	4713.631836
932.517578	4687.080566
930.750000	4669.025391
928.982422	4652.392090
927.212891	4625.872070
925.443359	4630.450684
923.673828	4671.756348
921.904297	4667.846680
920.132813	4607.457520
918.361328	4702.382813
916.591797	4754.922852
914.818359	4738.296387
913.046875	4665.248047
911.275391	4724.810547
909.501953	4696.920410
907.728516	4642.258301
905.955078	4707.420410
904.179688	4616.144043
902.406250	4744.675293
900.630859	4680.191895
898.855469	4679.102051
897.080078	4659.711426
895.302734	4568.550293
893.525391	4580.149902
891.750000	4600.184570
889.970703	4604.738281
888.193359	4551.638184
886.416016	4483.098633
884.636719	4522.812012
882.857422	4540.024414
881.078125	4451.866699
879.296875	4494.367188
877.517578	4407.664551
875.736328	4375.751465
873.955078	4366.308594
872.173828	4414.400391
870.390625	4329.198730
868.609375	4392.703613
866.826172	4359.426758
865.042969	4327.566895
863.259766	4280.304688
861.474609	4312.933105
859.689453	4346.946777
857.904297	4375.342285
856.119141	4322.510254
854.333984	4236.104980
852.546875	4300.893555
850.761719	4360.054688
848.974609	4324.061523
847.185547	4310.461914
845.398438	4277.292480
843.609375	4438.451172
841.822266	4422.038086
840.031250	4380.480469
838.242188	4276.079590
836.453125	4251.334473
834.662109	4176.333984
832.871094	4271.677246
831.080078	4238.575684
829.289063	4135.723145
827.496094	4236.587402
825.703125	4171.438965
823.910156	4244.359863
822.117188	4155.541016
820.324219	4070.944580
818.529297	4251.125000
816.734375	4308.633789
814.939453	4258.877441
813.144531	4235.598633
811.347656	4167.785156
809.550781	4236.392090
807.755859	4154.695313
805.957031	4139.808105
804.160156	4186.119629
802.361328	4256.046387
800.564453	4345.400879
798.765625	4333.260254
796.964844	4282.221680
795.166016	4325.665039
793.365234	4419.083496
791.564453	4248.652832
789.763672	4343.432617
787.962891	4236.937500
786.160156	4167.953613
784.359375	4097.614746
782.556641	4075.847412
780.751953	4001.403076
778.949219	3982.439941
777.144531	3963.485352
775.339844	3988.875732
773.535156	3929.757568
771.730469	3998.073486
769.925781	3936.211182
768.119141	3939.435303
766.312500	3986.941406
764.505859	3959.713135
762.697266	3879.935059
760.890625	3881.784912
759.082031	3919.580322
757.273438	3897.921143
755.464844	3898.382568
753.654297	3970.686035
751.845703	3908.972412
750.035156	3885.953857
748.224609	3835.333496
746.412109	3936.568115
744.601563	3899.758545
742.789063	3920.910645
740.976563	3786.191162
739.164063	3906.645752
737.349609	3840.925049
735.537109	3811.071777
733.722656	3837.729980
731.908203	3836.821777
730.091797	3849.687256
728.277344	3786.810059
726.460938	3831.344727
724.644531	3852.459473
722.828125	3859.803467
721.009766	3765.340332
719.193359	3736.940674
717.375000	3778.682373
715.556641	3776.412354
713.736328	3779.640869
711.917969	3822.715820
710.097656	3754.495361
708.277344	3870.347412
706.457031	3773.312012
704.636719	3773.790039
702.814453	3822.303467
700.992188	3750.045898
699.169922	3780.708008
697.347656	3808.612061
695.523438	3825.533447
693.699219	3695.767090
691.875000	3797.677979
690.050781	3839.252197
688.226563	3754.779297
686.400391	3773.061279
684.574219	3788.595703
682.748047	3767.162842
680.921875	3808.693115
679.095703	3724.326172
677.267578	3723.441406
675.439453	3769.054199
673.611328	3784.565674
671.781250	3761.795166
669.953125	3767.734131
668.123047	3777.768555
666.292969	3902.538330
664.460938	3935.750977
662.630859	3958.025391
660.798828	3944.799072
658.966797	3998.447021
657.134766	3996.131348
655.302734	4053.832764
653.468750	4115.597656
651.634766	4088.714355
649.800781	4124.542969
647.966797	4248.930664
646.130859	4242.469238
644.294922	4207.407715
642.458984	4256.790039
640.623047	4199.958496
638.787109	4122.737305
636.949219	4159.856445
635.111328	4104.447754
633.273438	4004.181641
631.435547	3946.116211
629.595703	3890.797119
627.757813	3989.087402
625.917969	3869.919189
624.076172	3907.034668
622.236328	3910.177734
620.394531	3806.048828
618.552734	3775.275879
616.710938	3773.018311
614.869141	3736.839600
613.025391	3734.591797
611.183594	3745.906982
609.339844	3713.827637
607.494141	3731.919678
605.650391	3672.752930
603.804688	3629.873535
601.958984	3639.844238
600.113281	3613.243896
598.267578	3612.381592
596.419922	3584.446289
594.572266	3519.984619
592.724609	3563.792969
590.876953	3598.111572
589.027344	3537.749023
587.179688	3585.577148
585.330078	3437.384766
583.480469	3367.643311
581.628906	3476.274658
579.779297	3479.496338
577.927734	3371.982422
576.076172	3477.833984
574.222656	3530.993652
572.371094	3418.145752
570.517578	3449.708008
568.664063	3404.373047
566.810547	3379.286621
564.955078	3366.345459
563.101563	3387.105957
561.246094	3274.452881
559.390625	3320.821533
557.533203	3371.208496
555.677734	3253.252930
553.820313	3302.285156
551.962891	3376.865723
550.105469	3224.007568
548.246094	3281.082520
546.386719	3404.031738
544.527344	3321.196045
542.667969	3250.498291
540.808594	3281.975830
538.947266	3265.066895
537.085938	3289.808838
535.224609	3271.562500
533.363281	3289.577148
531.500000	3311.610107
529.638672	3261.162109
527.775391	3394.553467
525.910156	3391.058350
524.046875	3504.238281
522.181641	3669.653320
520.316406	4009.245605
518.451172	3943.960205
516.585938	3614.766357
514.718750	3509.421875
512.851563	3441.623779
510.984375	3309.594238
509.117188	3354.311035
507.250000	3390.977295
505.380859	3356.718262
503.511719	3396.041016
501.642578	3375.169189
499.771484	3319.547363
497.902344	3312.069336
496.031250	3260.497803
494.160156	3241.013428
492.287109	3254.928955
490.416016	3260.825928
488.542969	3293.419434
486.669922	3342.013184
484.796875	3241.136230
482.921875	3320.401611
481.046875	3251.586914
479.171875	3193.471924
477.296875	3302.018555
475.421875	3197.272705
473.544922	3275.120117
471.667969	3290.320801
469.791016	3200.302002
467.914063	3226.164795
466.035156	3152.177979
464.156250	3243.250488
462.277344	3229.167969
460.398438	3185.827637
458.519531	3247.568604
456.638672	3206.903564
454.757813	3186.196289
452.876953	3298.391357
450.994141	3322.844238
449.113281	3267.588135
447.230469	3298.676270
445.347656	3331.076904
443.462891	3234.710449
441.580078	3220.665039
439.695313	3223.873291
437.810547	3227.079834
435.925781	3304.543945
434.039063	3257.350830
432.152344	3295.007568
430.267578	3227.962402
428.378906	3207.316895
426.492188	3247.606689
424.603516	3136.923584
422.714844	3257.964844
420.826172	3216.154785
418.937500	3159.809326
417.046875	3202.707275
415.158203	3119.940430
413.265625	3139.026611
411.375000	3200.405273
409.484375	3101.838379
407.591797	3146.019287
405.699219	3200.746826
403.806641	3219.789795
401.912109	3171.485596
400.019531	3127.164307
