#Wave		#Intensity
1585.210938	5155.141113
1584.209961	5165.131836
1583.208984	5109.124512
1582.208008	5210.427246
1581.206055	5149.441406
1580.204102	5090.976563
1579.202148	5089.921875
1578.200195	5228.561523
1577.198242	5175.104004
1576.195313	4982.031738
1575.192383	5013.408691
1574.189453	4992.430664
1573.186523	4988.904785
1572.182617	5015.277344
1571.178711	5029.184082
1570.174805	4973.353516
1569.170898	4920.035645
1568.166992	4973.782715
1567.162109	5005.107910
1566.158203	4991.629883
1565.153320	4908.497559
1564.147461	4954.740234
1563.142578	4876.623047
1562.136719	4865.668457
1561.130859	5085.894531
1560.125000	5092.297363
1559.119141	5071.364746
1558.113281	5015.661621
1557.106445	5091.618164
1556.099609	5276.804199
1555.092773	5335.296387
1554.084961	5314.333984
1553.078125	5410.018555
1552.070313	5327.020508
1551.062500	5608.709961
1550.054688	5887.801758
1549.045898	5908.899414
1548.038086	6014.276855
1547.029297	6206.360840
1546.020508	6103.475098
1545.011719	6310.325684
1544.001953	6450.210449
1542.992188	6607.373047
1541.982422	6865.986328
1540.972656	6822.481445
1539.962891	6801.269043
1538.952148	6973.074219
1537.942383	6941.942871
1536.931641	7113.646973
1535.919922	6973.689941
1534.909180	6893.128418
1533.897461	6926.307617
1532.886719	6900.159668
1531.874023	6542.922852
1530.862305	6662.616699
1529.850586	6354.973145
1528.837891	6227.720215
1527.825195	6023.985352
1526.812500	5980.776367
1525.799805	5779.644043
1524.786133	5697.026367
1523.772461	5740.249023
1522.758789	5526.959473
1521.745117	5417.320313
1520.731445	5369.358398
1519.716797	5385.500000
1518.702148	5384.384766
1517.687500	5321.676270
1516.672852	5347.669922
1515.657227	5373.652344
1514.642578	5264.202148
1513.626953	5186.799316
1512.610352	5377.697754
1511.594727	5280.617676
1510.579102	5136.833984
1509.562500	5303.027344
1508.545898	5260.123047
1507.529297	5322.958496
1506.511719	5437.388184
1505.494141	5345.329590
1504.477539	5376.165039
1503.458984	5389.791016
1502.441406	5388.674316
1501.423828	5436.669922
1500.405273	5354.525879
1499.386719	5363.234863
1498.368164	5359.669434
1497.348633	5417.444336
1496.330078	5372.166992
1495.310547	5515.753418
1494.291016	5369.940918
1493.271484	5378.634277
1492.250977	5509.874512
1491.231445	5474.425781
1490.210938	5510.041016
1489.190430	5425.616211
1488.168945	5387.757324
1487.148438	5322.980469
1486.126953	5520.162109
1485.105469	5457.831543
1484.083984	5432.230469
1483.061523	5465.354492
1482.040039	5427.532715
1481.017578	5499.770508
1479.995117	5525.524414
1478.971680	5558.600586
1477.949219	5713.857910
1476.925781	5536.748047
1475.902344	5806.761719
1474.878906	5873.944336
1473.855469	5994.820313
1472.831055	6025.314941
1471.806641	6080.205078
1470.782227	6135.072266
1469.757813	6448.541016
1468.733398	6471.597168
1467.708008	6562.930664
1466.682617	6841.978027
1465.657227	6989.266113
1464.631836	7155.991699
1463.605469	7388.441406
1462.579102	7469.743164
1461.552734	7660.622070
1460.526367	8255.681641
1459.500000	8295.360352
1458.472656	8541.936523
1457.445313	8778.674805
1456.417969	8913.116211
1455.390625	8753.134766
1454.362305	8945.899414
1453.334961	8674.116211
1452.306641	8470.520508
1451.277344	8257.285156
1450.249023	8309.036133
1449.219727	7911.261719
1448.191406	7802.731934
1447.162109	7497.519043
1446.131836	7301.702637
1445.102539	6933.598633
1444.072266	6754.970703
1443.041992	6617.670898
1442.011719	6509.542480
1440.981445	6425.715332
1439.950195	6312.820313
1438.918945	6081.161621
1437.887695	6099.291504
1436.856445	5996.228516
1435.825195	5885.938477
1434.792969	5850.796875
1433.760742	5796.292480
1432.728516	5703.063477
1431.696289	5798.725098
1430.663086	5705.533203
1429.629883	5609.959961
1428.596680	5596.695313
1427.563477	5595.531250
1426.530273	5521.807129
1425.496094	5423.932129
1424.461914	5352.691895
1423.427734	5351.578125
1422.393555	5251.381836
1421.358398	5199.550293
1420.323242	5273.353027
1419.288086	5161.159180
1418.252930	5186.645508
1417.217773	5236.263184
1416.181641	5162.763672
1415.145508	5265.453613
1414.109375	5223.342773
1413.073242	5176.424316
1412.036133	5320.043945
1411.000000	5268.302246
1409.962891	5455.233398
1408.924805	5490.249023
1407.887695	5590.309082
1406.849609	5610.826172
1405.812500	5814.389160
1404.773438	5892.645508
1403.735352	5934.754395
1402.697266	6058.687012
1401.658203	6221.073242
1400.619141	6366.548340
1399.580078	6497.529297
1398.540039	6479.338867
1397.500977	6639.095703
1396.460938	6500.677734
1395.420898	6496.918457
1394.380859	6452.307617
1393.339844	6381.286621
1392.298828	6293.479980
1391.257813	6212.914551
1390.216797	6228.425781
1389.175781	6167.110840
1388.133789	6163.423828
1387.091797	6123.744141
1386.049805	6266.410645
1385.007813	6245.914063
1383.964844	6352.523438
1382.922852	6495.052246
1381.879883	6524.857910
1380.835938	6585.806152
1379.792969	6845.603516
1378.749023	6580.659180
1377.706055	6646.346680
1376.661133	6855.681152
1375.617188	6885.371582
1374.573242	6900.687500
1373.528320	7026.078613
1372.483398	6957.617676
1371.438477	7061.414551
1370.392578	6959.491699
1369.347656	6984.338379
1368.301758	6968.534180
1367.255859	6950.346191
1366.208984	6963.229980
1365.163086	7014.333008
1364.116211	6953.150879
1363.069336	7097.368652
1362.022461	7002.768066
1360.974609	6920.141602
1359.927734	6966.424805
1358.879883	6981.668945
1357.832031	7082.787109
1356.783203	7007.366211
1355.735352	7129.896973
1354.686523	7342.971191
1353.637695	7267.541992
1352.588867	7406.621582
1351.539063	7540.876953
1350.490234	7787.033691
1349.440430	7852.085938
1348.390625	8129.027344
1347.339844	8372.523438
1346.290039	8430.270508
1345.239258	8697.396484
1344.188477	8828.801758
1343.137695	8938.744141
1342.085938	9236.508789
1341.034180	9362.960938
1339.982422	9553.541992
1338.930664	9741.665039
1337.878906	9903.571289
1336.826172	10060.658203
1335.773438	10018.168945
1334.720703	10108.675781
1333.667969	10156.409180
1332.614258	10178.012695
1331.561523	10045.354492
1330.507813	9981.556641
1329.453125	9758.853516
1328.399414	9614.506836
1327.344727	9626.713867
1326.290039	9472.971680
1325.235352	9376.175781
1324.180664	9151.460938
1323.125000	9249.040039
1322.070313	9199.722656
1321.014648	9157.530273
1319.958008	8961.458984
1318.902344	8834.116211
1317.845703	8879.590820
1316.789063	8669.502930
1315.732422	8509.180664
1314.675781	8630.376953
1313.618164	8344.804688
1312.560547	8177.557617
1311.502930	8069.472168
1310.445313	7602.233887
1309.386719	7546.291992
1308.329102	7150.223633
1307.270508	7094.399414
1306.210938	6866.233887
1305.152344	6864.787109
1304.092773	6497.515625
1303.033203	6463.111328
1301.973633	6374.459473
1300.914063	6314.148926
1299.853516	6145.387695
1298.792969	6127.587891
1297.732422	6079.151855
1296.671875	5952.965820
1295.611328	5987.052246
1294.549805	5952.809570
1293.488281	5942.132324
1292.426758	6006.809570
1291.364258	5941.978027
1290.302734	5783.026367
1289.240234	5817.103027
1288.177734	5851.165039
1287.114258	5901.677246
1286.051758	5740.514648
1284.988281	5889.779297
1283.924805	5897.937500
1282.861328	5854.386719
1281.796875	5878.996582
1280.732422	5959.976074
1279.667969	5780.212891
1278.603516	5882.312500
1277.539063	5958.543457
1276.473633	5872.782715
1275.408203	5998.264160
1274.342773	6130.730469
1273.277344	6049.677734
1272.210938	6132.826172
1271.145508	6164.354492
1270.079102	6116.164063
1269.011719	5920.336914
1267.945313	6076.081543
1266.877930	6013.882324
1265.810547	5881.441406
1264.743164	6060.511719
1263.674805	5853.194824
1262.607422	5751.300781
1261.539063	5712.636719
1260.470703	5533.601563
1259.401367	5628.339355
1258.333008	5571.014160
1257.263672	5424.857910
1256.194336	5463.449707
1255.125000	5429.567871
1254.054688	5201.745117
1252.985352	5268.394043
1251.915039	5152.820313
1250.843750	5093.343262
1249.773438	5085.257324
1248.702148	5158.875977
1247.630859	5041.087891
1246.559570	5145.017578
1245.488281	5083.270020
1244.416016	4944.581055
1243.343750	4857.251465
1242.271484	4872.538574
1241.199219	4904.134766
1240.125977	4933.386230
1239.053711	4948.645996
1237.980469	4926.628906
1236.906250	4816.123535
1235.833008	4808.113281
1234.758789	4890.894043
1233.684570	4878.216309
1232.610352	4677.064453
1231.536133	4794.714844
1230.460938	4796.019531
1229.385742	4808.950684
1228.310547	4791.651855
1227.235352	4867.336426
1226.159180	4787.285645
1225.083008	4821.116699
1224.006836	4859.579102
1222.930664	4865.510254
1221.853516	4873.760254
1220.777344	4942.364258
1219.700195	5045.752930
1218.622070	4914.730469
1217.544922	4950.801270
1216.466797	5049.481934
1215.388672	5078.550293
1214.310547	5128.472656
1213.232422	5062.474121
1212.153320	5144.822266
1211.074219	5254.938965
1209.995117	5253.816406
1208.916016	5220.269531
1207.835938	5246.940430
1206.755859	5287.488770
1205.675781	5263.213379
1204.595703	5287.541992
1203.514648	5286.411133
1202.434570	5329.228027
1201.353516	5381.276367
1200.271484	5361.628906
1199.190430	5293.446289
1198.108398	5209.115234
1197.026367	5106.335449
1195.944336	5024.390137
1194.862305	5023.313965
1193.779297	5026.856445
1192.696289	5011.927734
1191.613281	4957.768066
1190.530273	4746.714844
1189.446289	4833.367188
1188.362305	4862.316895
1187.278320	4868.192383
1186.194336	4756.479004
1185.109375	4693.220703
1184.024414	4643.816895
1182.939453	4631.299805
1181.854492	4505.909668
1180.768555	4560.217773
1179.683594	4554.633789
1178.597656	4417.828613
1177.510742	4594.107422
1176.424805	4551.699707
1175.337891	4412.682129
1174.250977	4506.041016
1173.164063	4463.678223
1172.077148	4483.411621
1170.989258	4493.941406
1169.901367	4550.430176
1168.813477	4418.482422
1167.724609	4426.720703
1166.636719	4506.153320
1165.547852	4516.665039
1164.458984	4540.946289
1163.369141	4620.301758
1162.280273	4525.222656
1161.190430	4620.606934
1160.100586	4589.792969
1159.010742	4614.030273
1157.919922	4702.453613
1156.829102	4676.225586
1155.738281	4675.217773
1154.647461	4662.753906
1153.555664	4604.479004
1152.464844	4720.291016
1151.373047	4641.419922
1150.280273	4704.519043
1149.188477	4666.883301
1148.095703	4551.460449
1147.002930	4614.537109
1145.910156	4494.600098
1144.817383	4534.792480
1143.723633	4494.945801
1142.629883	4594.552246
1141.536133	4502.145508
1140.441406	4576.573242
1139.347656	4445.375488
1138.252930	4492.375977
1137.158203	4388.652832
1136.062500	4494.999512
1134.967773	4487.180176
1133.872070	4436.008301
1132.776367	4378.013184
1131.679688	4598.314453
1130.583984	4414.886230
1129.487305	4555.285645
1128.390625	4520.107910
1127.292969	4525.966309
1126.196289	4504.479980
1125.098633	4451.111328
1124.000977	4538.967773
1122.903320	4467.398926
1121.804688	4511.959961
1120.706055	4547.397461
1119.607422	4587.370117
1118.508789	4433.951172
1117.409180	4555.812500
1116.310547	4461.590332
1115.210938	4478.810059
1114.110352	4591.489258
1113.010742	4470.048828
1111.910156	4414.549805
1110.809570	4477.194336
1109.708984	4410.361816
1108.607422	4418.486328
1107.506836	4490.168457
1106.405273	4343.940918
1105.303711	4422.414063
1104.201172	4394.229980
1103.098633	4282.138672
1101.996094	4324.291992
1100.893555	4316.550293
1099.791016	4392.675781
1098.687500	4389.454102
1097.583984	4322.795898
1096.480469	4321.854980
1095.376953	4268.827637
1094.272461	4424.124023
1093.167969	4457.115234
1092.063477	4426.723633
1090.958008	4380.505859
1089.853516	4431.581543
1088.748047	4527.867676
1087.642578	4558.537109
1086.536133	4516.851074
1085.430664	4608.534180
1084.324219	4711.475586
1083.217773	4726.262207
1082.110352	4806.544922
1081.003906	4934.214844
1079.896484	4851.859863
1078.789063	5060.723633
1077.680664	4910.673828
1076.573242	4914.113770
1075.464844	4964.923340
1074.356445	5081.112305
1073.247070	5039.416504
1072.138672	5153.283691
1071.029297	5062.005859
1069.919922	4923.448242
1068.809570	4881.821289
1067.700195	4892.015137
1066.589844	4868.427246
1065.479492	4754.795898
1064.368164	4740.250488
1063.257813	4788.720703
1062.146484	4627.933594
1061.035156	4658.411133
1059.922852	4531.455078
1058.811523	4503.481934
1057.699219	4426.067871
1056.586914	4434.087402
1055.473633	4349.980957
1054.361328	4360.259766
1053.248047	4388.500488
1052.134766	4358.348145
1051.021484	4402.290527
1049.907227	4336.236816
1048.792969	4283.674805
1047.678711	4341.064453
1046.564453	4387.213867
1045.449219	4303.279785
1044.333984	4389.771973
1043.218750	4366.393555
1042.103516	4271.312988
1040.987305	4292.779785
1039.871094	4383.676758
1038.754883	4382.713379
1037.638672	4227.258301
1036.521484	4369.594238
1035.404297	4411.156250
1034.287109	4293.834473
1033.169922	4337.630859
1032.051758	4350.096191
1030.933594	4375.971680
1029.815430	4430.897949
1028.697266	4412.041992
1027.578125	4308.279785
1026.458984	4389.992676
1025.339844	4406.894531
1024.220703	4372.427246
1023.100586	4427.279297
1021.980469	4526.749512
1020.860352	4374.000977
1019.740234	4491.287109
1018.619141	4503.681152
1017.498047	4558.441895
1016.376953	4497.235352
1015.255859	4433.826660
1014.133789	4457.363770
1013.011719	4485.346680
1011.889648	4459.852051
1010.767578	4425.459473
1009.644531	4437.842773
1008.521484	4370.076172
1007.398438	4458.140137
1006.274414	4459.380371
1005.151367	4574.082031
1004.027344	4484.101074
1002.902344	4389.711426
1001.778320	4435.429688
1000.653320	4561.147461
999.528320	4484.581055
998.403320	4492.476074
997.278320	4615.875488
996.152344	4326.148438
995.026367	4485.054199
993.900391	4499.600098
992.773438	4562.964844
991.646484	4621.863281
990.519531	4583.127441
989.392578	4770.630859
988.265625	4727.443848
987.137695	4739.697754
986.009766	4758.594727
984.881836	4761.971680
983.752930	4723.253906
982.624023	4728.851074
981.495117	4668.012695
980.366211	4810.882813
979.236328	4694.716309
978.106445	4642.776855
976.976563	4685.995605
975.846680	4631.867676
974.715820	4515.842285
973.585938	4598.856934
972.454102	4544.783691
971.323242	4404.543457
970.191406	4485.316895
969.060547	4490.947266
967.927734	4394.981934
966.795898	4427.125488
965.663086	4446.009277
964.530273	4612.756836
963.397461	4598.491211
962.264648	4641.589844
961.130859	4605.267578
959.997070	4672.600586
958.863281	4755.335449
957.729492	4756.480957
956.594727	4762.032715
955.459961	4743.347168
954.325195	4757.708984
953.189453	4688.382324
952.053711	4561.842773
950.917969	4552.021484
949.782227	4614.826660
948.646484	4503.788086
947.509766	4564.375488
946.373047	4350.034180
945.235352	4434.813477
944.098633	4451.410156
942.960938	4380.089355
941.823242	4460.409668
940.685547	4367.150391
939.546875	4577.016602
938.408203	4494.750977
937.269531	4412.521484
936.129883	4571.755859
934.991211	4511.488281
933.851563	4534.611816
932.711914	4709.064453
931.571289	4508.463867
930.431641	4643.380859
929.291016	4637.958984
928.149414	4803.465332
927.008789	4749.809570
925.867188	4643.608887
924.725586	4684.177246
923.583984	4610.878906
922.441406	4601.090820
921.299805	4562.857910
920.157227	4518.077148
919.013672	4521.440430
917.871094	4474.501465
916.727539	4497.550293
915.583984	4481.240723
914.439453	4355.663574
913.295898	4380.907227
912.151367	4277.253418
911.006836	4442.279297
909.861328	4301.537598
908.716797	4265.644043
907.571289	4236.313965
906.424805	4285.550781
905.279297	4223.505371
904.132813	4298.894531
902.986328	4206.345215
901.839844	4196.680176
900.692383	4343.950684
899.545898	4264.526855
898.398438	4259.211914
897.250000	4221.226563
896.102539	4377.068359
894.954102	4299.883789
893.805664	4292.387207
892.656250	4265.308105
891.507813	4312.213867
890.358398	4287.316895
889.208984	4351.593750
888.058594	4289.736328
886.908203	4262.686523
885.758789	4283.459473
884.607422	4256.422363
883.457031	4396.661133
882.305664	4252.333984
881.154297	4314.343750
880.002930	4332.908691
878.850586	4370.998047
877.698242	4244.164063
876.545898	4338.657715
875.393555	4216.225098
874.240234	4145.887207
873.086914	4188.309570
871.933594	4150.520020
870.780273	4212.423340
869.625977	4228.804199
868.471680	4281.998047
867.317383	4101.301758
866.162109	4111.200684
865.007813	4322.388184
863.852539	4297.608887
862.696289	4244.715332
861.541016	4211.312012
860.384766	4108.724121
859.228516	4224.543457
858.072266	4076.606445
856.915039	4105.939453
855.757813	4208.717285
854.600586	4227.206055
853.442383	4157.144531
852.285156	4214.499512
851.126953	4235.131836
849.968750	4232.016113
848.809570	4157.700195
847.650391	4156.759277
846.491211	4207.577637
845.332031	4185.063965
844.171875	4304.833008
843.012695	4187.479492
841.851563	4175.758301
840.691406	4138.191406
839.530273	4188.942871
838.369141	4224.598145
837.208008	4215.030273
836.046875	4222.684082
834.884766	4314.251953
833.722656	4246.584961
832.560547	4157.440430
831.397461	4261.861816
830.234375	4265.194824
829.071289	4270.675293
827.908203	4185.902344
826.744141	4163.469238
825.580078	4265.621094
824.416016	4266.800293
823.251953	4278.713379
822.086914	4245.545898
820.921875	4289.645996
819.756836	4243.618164
818.590820	4307.001953
817.425781	4136.613281
816.259766	4230.007324
815.092773	4299.780273
813.926758	4296.660156
812.759766	4293.541016
811.592773	4245.440918
810.424805	4347.268066
809.257813	4239.228516
808.089844	4148.361816
806.920898	4126.017578
805.752930	4279.127930
804.583984	4192.590820
803.415039	4187.359863
802.246094	4246.273926
801.076172	4296.609863
799.906250	4276.397461
798.736328	4309.610352
797.566406	4189.004395
796.395508	4194.457031
795.224609	4340.829590
794.053711	4211.758789
792.881836	4323.912109
791.710938	4444.549316
790.538086	4507.533691
789.366211	4534.231934
788.194336	4650.472656
787.021484	4623.831055
785.848633	4763.441895
784.674805	4755.963379
783.500977	4610.016602
782.327148	4672.859863
781.153320	4552.550293
779.979492	4506.805176
778.804688	4548.344238
777.629883	4549.434082
776.454102	4512.229492
775.279297	4509.072266
774.103516	4516.548340
772.927734	4483.627930
771.750977	4431.592773
770.575195	4462.455078
769.398438	4457.186523
768.220703	4677.064941
767.043945	4680.243164
765.866211	4687.665527
764.688477	4805.457031
763.510742	4804.358398
762.332031	4932.676270
761.153320	4965.485840
759.974609	5161.566895
758.794922	5304.554688
757.616211	5549.219727
756.436523	5831.916992
755.255859	6209.824707
754.076172	6687.113770
752.895508	7375.953613
751.714844	8144.932129
750.533203	8856.406250
749.352539	10105.080078
748.170898	10993.502930
746.988281	11796.906250
745.806641	12426.527344
744.624023	12844.427734
743.441406	12773.842773
742.258789	12925.189453
741.075195	12928.566406
739.891602	12883.355469
738.708008	12920.528320
737.523438	13458.085938
736.339844	13693.534180
735.155273	13924.653320
733.969727	14092.365234
732.785156	14072.257813
731.599609	13651.451172
730.414063	12771.183594
729.227539	12007.259766
728.041992	11047.684570
726.855469	9766.170898
725.667969	8832.827148
724.481445	7933.609375
723.293945	7230.624023
722.106445	6814.256348
720.918945	6355.986328
719.730469	6135.695313
718.541992	5747.211914
717.353516	5546.089844
716.164063	5345.059082
714.975586	5263.946777
713.786133	4985.309082
712.595703	4904.315918
711.406250	4915.793457
710.215820	4776.044434
709.025391	4791.745117
707.833984	4738.160645
706.642578	4493.606445
705.451172	4654.145996
704.259766	4657.271484
703.068359	4641.518555
701.875977	4713.842773
700.683594	4777.747559
699.490234	4877.253418
698.297852	5047.958496
697.104492	5180.875488
695.910156	5322.108887
694.716797	5488.404785
693.522461	5602.285645
692.328125	5693.089844
691.132813	5727.352539
689.938477	5746.954590
688.743164	5699.616211
687.547852	5673.209961
686.351563	5565.280762
685.155273	5292.278320
683.958984	5171.947266
682.762695	5099.723145
681.565430	5075.572266
680.368164	5034.726563
679.170898	5081.584473
677.973633	4946.827637
676.775391	5018.725098
675.577148	4957.065430
674.378906	4958.008301
673.179688	4689.940918
671.980469	4799.357422
670.781250	4821.178711
669.581055	4799.227539
668.381836	4666.865234
667.181641	4769.935547
665.980469	4677.207031
664.780273	4605.340332
663.579102	4627.174316
662.377930	4578.243164
661.175781	4608.394531
659.973633	4544.929199
658.771484	4577.153320
657.569336	4686.289063
656.367188	4670.656738
655.164063	4702.828613
653.960938	4741.218262
652.756836	5010.156738
651.552734	4934.238770
650.348633	5043.138672
649.144531	5064.807129
647.939453	5215.130859
646.735352	5259.571289
645.529297	5306.065430
644.324219	5242.624512
643.118164	5255.926758
641.912109	5441.269531
640.706055	5255.569824
639.499023	5210.845215
638.292969	5168.211914
637.084961	5214.649414
635.877930	5031.242188
634.669922	4930.719727
633.461914	4987.525879
632.253906	5050.512695
631.044922	4753.541504
629.836914	4768.986816
628.626953	4831.979004
627.417969	4888.740723
626.208008	4966.142578
624.998047	4898.876465
623.788086	4870.889160
622.577148	4886.283691
621.366211	4866.570801
620.155273	4937.693359
618.944336	4841.617188
617.732422	4821.926758
616.520508	4715.606934
615.308594	4741.326172
614.095703	4789.713379
612.882813	4547.422363
611.669922	4616.440430
610.457031	4557.679688
609.243164	4501.005371
608.029297	4475.249512
606.815430	4478.331055
605.600586	4401.128906
604.385742	4496.837891
603.170898	4419.666016
601.955078	4387.786133
600.740234	4483.430664
599.524414	4470.055176
598.307617	4450.518555
597.091797	4465.929199
595.875000	4413.526855
594.658203	4400.178711
593.440430	4370.406250
592.222656	4332.434570
591.004883	4358.117188
589.787109	4441.252930
588.568359	4473.053223
587.349609	4242.261719
586.130859	4241.278320
584.912109	4371.522949
583.692383	4208.562988
582.472656	4373.595703
581.251953	4288.572266
580.032227	4363.373535
578.811523	4339.833496
577.589844	4392.064453
576.369141	4458.600586
575.147461	4525.105469
573.925781	4587.487305
572.703125	4715.301270
571.481445	4769.428223
570.258789	4872.604004
569.035156	4916.447266
567.812500	5021.583984
566.588867	5118.498047
565.365234	5156.125000
564.140625	5285.640137
562.916992	5192.528809
561.692383	5456.708496
560.466797	5343.190918
559.242188	5241.968262
558.016602	5212.191895
556.791016	5143.678223
555.564453	4952.853027
554.337891	4970.051270
553.111328	4893.488281
551.884766	4749.718262
550.657227	4489.896973
549.429688	4499.038574
548.202148	4489.849609
546.974609	4553.951172
545.746094	4461.307129
544.517578	4409.401855
543.288086	4432.790527
542.058594	4543.623535
540.829102	4585.270020
539.599609	4411.408203
538.370117	4469.325195
537.139648	4482.511230
535.909180	4481.470703
534.677734	4521.050781
533.446289	4410.351563
532.214844	4378.876953
530.983398	4475.281250
529.750977	4386.989746
528.519531	4361.626953
527.286133	4269.345703
526.053711	4205.495117
524.820313	4429.543457
523.586914	4448.783203
522.353516	4397.092285
521.119141	4406.200684
519.884766	4275.554199
518.650391	4321.133789
517.415039	4287.739746
516.179688	4157.210938
514.944336	4109.705078
513.708984	4147.188477
