#Wave		#Intensity
1585.210938	5195.103516
1584.209961	5185.112793
1583.208984	5069.170410
1582.208008	5153.005371
1581.206055	5151.937500
1580.204102	5128.410156
1579.202148	5187.229004
1578.200195	5310.881836
1577.198242	5177.598145
1576.195313	5358.551758
1575.192383	5217.834473
1574.189453	5249.155762
1573.186523	5255.544434
1572.182617	5294.318848
1571.178711	5198.566895
1570.174805	5155.153320
1569.170898	5101.797852
1568.166992	5028.549316
1567.162109	5221.639648
1566.158203	5126.000977
1565.153320	5095.085449
1564.147461	5106.466797
1563.142578	5219.802246
1562.136719	4965.119629
1561.130859	5085.894531
1560.125000	5059.988770
1559.119141	5039.062988
1558.113281	5033.051270
1557.106445	5049.395020
1556.099609	5276.804199
1555.092773	5062.200684
1554.084961	5076.045410
1553.078125	5258.637207
1552.070313	5121.085449
1551.062500	5075.373535
1550.054688	5128.885742
1549.045898	5165.017578
1548.038086	5186.260254
1547.029297	5212.450684
1546.020508	5104.814941
1545.011719	5140.920898
1544.001953	5043.252441
1542.992188	5081.832520
1541.982422	4952.027832
1540.972656	4951.002441
1539.962891	4917.802246
1538.952148	4961.324707
1537.942383	4878.656738
1536.931641	4872.699707
1535.919922	4933.514648
1534.909180	4922.603516
1533.897461	4938.887695
1532.886719	4873.608398
1531.874023	4833.065430
1530.862305	4782.656738
1529.850586	4954.557617
1528.837891	4790.554199
1527.825195	4945.099609
1526.812500	4798.443848
1525.799805	4886.291992
1524.786133	5018.515137
1523.772461	4837.399414
1522.758789	4828.999023
1521.745117	4815.669922
1520.731445	4999.567871
1519.716797	5033.039551
1518.702148	5123.174316
1517.687500	5021.100098
1516.672852	5039.766113
1515.657227	5112.604004
1514.642578	5244.504395
1513.626953	5088.331543
1512.610352	5185.725098
1511.594727	5324.909668
1510.579102	5213.099609
1509.562500	5268.591797
1508.545898	5279.796387
1507.529297	5219.695313
1506.511719	5208.781738
1505.494141	5229.821289
1504.477539	5167.310059
1503.458984	5114.650879
1502.441406	5111.135254
1501.423828	5065.875977
1500.405273	5064.826660
1499.386719	5031.867676
1498.368164	5021.009277
1497.348633	5002.793945
1496.330078	5158.752441
1495.310547	5039.961426
1494.291016	5129.642090
1493.271484	5037.873047
1492.250977	5078.496582
1491.231445	5089.696289
1490.210938	5022.491699
1489.190430	5033.698242
1488.168945	5196.736816
1487.148438	5014.472656
1486.126953	5165.207031
1485.105469	5090.712891
1484.083984	5180.194824
1483.061523	5286.764160
1482.040039	5363.938477
1481.017578	5323.699219
1479.995117	5417.947754
1478.971680	5389.935547
1477.949219	5518.345215
1476.925781	5590.502930
1475.902344	5811.647461
1474.878906	5720.073730
1473.855469	5618.770508
1472.831055	5842.211426
1471.806641	5928.871094
1470.782227	6022.815430
1469.757813	6019.126465
1468.733398	6056.907227
1467.708008	6114.183105
1466.682617	6220.201660
1465.657227	6379.808105
1464.631836	6497.913574
1463.605469	6647.647949
1462.579102	6736.412109
1461.552734	6868.983887
1460.526367	6955.229004
1459.500000	7012.220703
1458.472656	6974.250977
1457.445313	7140.734863
1456.417969	7010.288574
1455.390625	6916.387695
1454.362305	6902.790527
1453.334961	6818.677246
1452.306641	6377.202637
1451.277344	6349.140137
1450.249023	6306.507324
1449.219727	6052.503906
1448.191406	6104.690430
1447.162109	6093.707520
1446.131836	5907.895996
1445.102539	5986.783691
1444.072266	5805.925293
1443.041992	5824.132813
1442.011719	5803.513184
1440.981445	5690.724121
1439.950195	5759.872559
1438.918945	5780.498047
1437.887695	5599.905762
1436.856445	5724.774414
1435.825195	5612.117188
1434.792969	5610.950684
1433.760742	5527.429688
1432.728516	5528.702148
1431.696289	5467.023438
1430.663086	5281.915039
1429.629883	5343.741211
1428.596680	5299.075684
1427.563477	5152.823730
1426.530273	5117.890625
1425.496094	5116.826172
1424.461914	5251.150391
1423.427734	5020.428223
1422.393555	5016.966797
1421.358398	5211.630859
1420.323242	5106.673340
1419.288086	5018.665527
1418.252930	5111.791992
1417.217773	5156.596680
1416.181641	5305.168457
1415.145508	5253.388184
1414.109375	5257.119629
1413.073242	5181.249023
1412.036133	5392.392578
1411.000000	5396.091797
1409.962891	5652.904297
1408.924805	5683.058594
1407.887695	5667.416504
1406.849609	5974.602539
1405.812500	6055.250488
1404.773438	6309.248535
1403.735352	6512.580078
1402.697266	6605.100098
1401.658203	6565.217285
1400.619141	6782.804199
1399.580078	6841.530273
1398.540039	6914.662109
1397.500977	6869.937500
1396.460938	6923.798828
1395.420898	6576.237305
1394.380859	6651.764648
1393.339844	6419.728027
1392.298828	6437.605469
1391.257813	6354.608398
1390.216797	6451.727051
1389.175781	6241.529297
1388.133789	6273.828125
1387.091797	6358.903320
1386.049805	6338.383301
1385.007813	6375.437500
1383.964844	6429.262207
1382.922852	6701.244141
1381.879883	6786.139648
1380.835938	7043.553223
1379.792969	7293.670410
1378.749023	7457.441895
1377.706055	7391.216797
1376.661133	7686.600098
1375.617188	7823.850586
1374.573242	7783.917969
1373.528320	7636.313477
1372.483398	7864.404785
1371.438477	7611.592285
1370.392578	7559.777832
1369.347656	7474.509277
1368.301758	7307.996094
1367.255859	7079.410156
1366.208984	7082.708496
1365.163086	6971.329590
1364.116211	6807.447754
1363.069336	6731.992676
1362.022461	6637.468262
1360.974609	6583.563477
1359.927734	6512.974609
1358.879883	6509.225098
1357.832031	6524.561035
1356.783203	6618.598145
1355.735352	6559.982422
1354.686523	6613.442383
1353.637695	6931.457031
1352.588867	7006.263672
1351.539063	7109.629395
1350.490234	7320.145020
1349.440430	7718.717285
1348.390625	8100.454590
1347.339844	8367.762695
1346.290039	8658.758789
1345.239258	9104.306641
1344.188477	9238.005859
1343.137695	9759.358398
1342.085938	9926.155273
1341.034180	10461.409180
1339.982422	10811.024414
1338.930664	10967.988281
1337.878906	11433.777344
1336.826172	11398.119141
1335.773438	11671.238281
1334.720703	11683.036133
1333.667969	11747.057617
1332.614258	12043.665039
1331.561523	11770.601563
1330.507813	11599.674805
1329.453125	11587.749023
1328.399414	11383.728516
1327.344727	11134.740234
1326.290039	11115.806641
1325.235352	11077.917969
1324.180664	10665.646484
1323.125000	10575.746094
1322.070313	10109.273438
1321.014648	10010.054688
1319.958008	9768.819336
1318.902344	9191.552734
1317.845703	9206.185547
1316.789063	8846.962891
1315.732422	8504.450195
1314.675781	8259.050781
1313.618164	8219.478516
1312.560547	7912.774414
1311.502930	7724.380371
1310.445313	7484.076660
1309.386719	7220.246582
1308.329102	7084.083496
1307.270508	6853.510742
1306.210938	6922.901855
1305.152344	6567.344727
1304.092773	6613.163574
1303.033203	6479.628906
1301.973633	6424.001953
1300.914063	6233.954590
1299.853516	6166.611328
1298.792969	6078.076660
1297.732422	6152.224121
1296.671875	5941.182129
1295.611328	5857.462402
1294.549805	5712.529785
1293.488281	5659.510254
1292.426758	5731.311035
1291.364258	5562.953613
1290.302734	5505.290527
1289.240234	5461.770020
1288.177734	5453.558594
1287.114258	5318.331055
1286.051758	5451.254883
1284.988281	5339.596191
1283.924805	5441.899414
1282.861328	5504.205078
1281.796875	5397.304199
1280.732422	5591.148438
1279.667969	5531.248047
1278.603516	5678.016602
1277.539063	5667.424805
1276.473633	5800.018555
1275.408203	5923.168457
1274.342773	6048.612305
1273.277344	5890.166992
1272.210938	6078.885254
1271.145508	6192.491211
1270.079102	6085.688965
1269.011719	6124.244141
1267.945313	6059.678711
1266.877930	5929.542969
1265.810547	5886.125977
1264.743164	5770.131836
1263.674805	5640.138672
1262.607422	5676.395508
1261.539063	5656.469727
1260.470703	5484.465820
1259.401367	5450.552734
1258.333008	5500.850586
1257.263672	5431.873047
1256.194336	5311.492188
1255.125000	5371.135254
1254.054688	5241.470703
1252.985352	5266.057617
1251.915039	5416.768066
1250.843750	5294.181152
1249.773438	5437.816406
1248.702148	5392.309082
1247.630859	5409.834473
1246.559570	5399.351563
1245.488281	5325.886230
1244.416016	5457.698242
1243.343750	5325.954102
1242.271484	5350.466797
1241.199219	5433.240234
1240.125977	5331.878906
1239.053711	5335.404785
1237.980469	5324.952148
1236.906250	5244.637207
1235.833008	5378.567871
1234.758789	5372.767090
1233.684570	5441.445313
1232.610352	5314.634277
1231.536133	5448.434082
1230.460938	5293.763672
1229.385742	5374.025391
1228.310547	5442.627930
1227.235352	5443.792969
1226.159180	5417.069336
1225.083008	5274.185547
1224.006836	5212.665039
1222.930664	5255.679688
1221.853516	5405.485352
1220.777344	5274.331543
1219.700195	5254.638672
1218.622070	5295.285645
1217.544922	5333.595215
1216.466797	5241.997559
1215.388672	5247.835449
1214.310547	5098.332520
1213.232422	5185.327148
1212.153320	5089.202637
1211.074219	5118.236328
1209.995117	5212.119629
1208.916016	5194.793945
1207.835938	5108.009766
1206.755859	5093.027832
1205.675781	5209.979492
1204.595703	5222.749512
1203.514648	5152.226563
1202.434570	5109.490234
1201.353516	5099.146973
1200.271484	5067.999023
1199.190430	5013.749023
1198.108398	4904.056152
1197.026367	5120.199219
1195.944336	5003.599609
1194.862305	5002.527832
1193.779297	4969.129395
1192.696289	4921.893066
1191.613281	4870.060547
1190.530273	4804.404785
1189.446289	4888.737305
1188.362305	4883.076172
1187.278320	4745.968750
1186.194336	4731.117188
1185.109375	4923.732422
1184.024414	4618.465820
1182.939453	4960.790039
1181.854492	4796.167480
1180.768555	4689.193848
1179.683594	4695.095215
1178.597656	4696.389160
1177.510742	4573.392578
1176.424805	4547.097656
1175.337891	4592.134277
1174.250977	4533.643066
1173.164063	4553.365723
1172.077148	4662.748047
1170.989258	4590.486328
1169.901367	4538.938965
1168.813477	4526.474609
1167.724609	4541.581055
1166.636719	4483.186523
1165.547852	4463.852051
1164.458984	4586.860840
1163.369141	4535.378418
1162.280273	4681.265137
1161.190430	4526.542969
1160.100586	4688.424316
1159.010742	4558.992188
1157.919922	4571.766602
1156.829102	4634.964844
1155.738281	4556.045898
1154.647461	4605.471680
1153.555664	4492.230469
1152.464844	4564.551270
1151.373047	4536.089355
1150.280273	4624.393555
1149.188477	4598.218750
1148.095703	4688.759277
1147.002930	4760.958008
1145.910156	4746.206055
1144.817383	4646.847656
1143.723633	4636.698730
1142.629883	4752.275391
1141.536133	4785.529297
1140.441406	4661.112793
1139.347656	4769.755371
1138.252930	4764.156738
1137.158203	4767.693359
1136.062500	4784.925781
1134.967773	4811.279785
1133.872070	4849.031250
1132.776367	4882.203613
1131.679688	4700.955566
1130.583984	4818.519531
1129.487305	4881.314453
1128.390625	4738.933105
1127.292969	4835.901367
1126.196289	4980.674316
1125.098633	4815.583496
1124.000977	4823.649902
1122.903320	4874.974609
1121.804688	4962.700684
1120.706055	5061.767578
1119.607422	4890.009277
1118.508789	4898.048828
1117.409180	4833.300781
1116.310547	4809.512207
1115.210938	4915.323730
1114.110352	5048.365234
1113.010742	4913.190430
1111.910156	4873.499512
1110.809570	4783.851563
1109.708984	4812.336426
1108.607422	4856.702148
1107.506836	4717.173828
1106.405273	4741.113770
1105.303711	4776.388672
1104.201172	4761.739258
1103.098633	4749.363770
1101.996094	4657.627441
1100.893555	4772.236328
1099.791016	4671.467773
1098.687500	4602.468262
1097.583984	4560.685547
1096.480469	4591.404785
1095.376953	4520.201660
1094.272461	4539.594727
1093.167969	4588.406738
1092.063477	4492.354980
1090.958008	4622.610352
1089.853516	4503.970703
1088.748047	4548.222656
1087.642578	4434.172363
1086.536133	4598.235840
1085.430664	4576.891602
1084.324219	4499.063477
1083.217773	4443.861328
1082.110352	4381.906738
1081.003906	4459.988281
1079.896484	4495.138672
1078.789063	4532.530273
1077.680664	4450.298340
1076.573242	4618.544922
1075.464844	4491.213867
1074.356445	4345.895996
1073.247070	4550.130859
1072.138672	4544.627930
1071.029297	4561.665039
1069.919922	4569.681152
1068.809570	4523.625977
1067.700195	4556.421387
1066.589844	4427.071289
1065.479492	4624.219238
1064.368164	4488.157227
1063.257813	4464.671875
1062.146484	4506.441895
1061.035156	4584.182617
1059.922852	4646.146973
1058.811523	4528.213867
1057.699219	4518.230957
1056.586914	4530.725098
1055.473633	4617.360840
1054.361328	4557.942871
1053.248047	4693.943848
1052.134766	4623.307129
1051.021484	4613.313477
1049.907227	4531.501953
1048.792969	4624.753418
1047.678711	4605.791016
1046.564453	4752.814941
1045.449219	4594.799805
1044.333984	4773.148438
1043.218750	4756.410156
1042.103516	4739.678711
1040.987305	4664.701172
1039.871094	4820.476563
1038.754883	4794.782715
1037.638672	4894.484375
1036.521484	4949.371582
1035.404297	4867.714355
1034.287109	4895.731934
1033.169922	4975.188965
1032.051758	5007.642578
1030.933594	5082.566895
1029.815430	5056.857422
1028.697266	5011.042480
1027.578125	4987.593750
1026.458984	5049.050293
1025.339844	5092.610352
1024.220703	5075.856445
1023.100586	5074.738281
1021.980469	5194.154785
1020.860352	5103.745117
1019.740234	5124.931152
1018.619141	5052.420898
1017.498047	5198.497070
1016.376953	5177.283691
1015.255859	5138.245605
1014.133789	5096.995605
1013.011719	5180.541992
1011.889648	5177.170898
1010.767578	5196.072754
1009.644531	5183.791992
1008.521484	5111.408203
1007.398438	5165.922363
1006.274414	5084.672852
1005.151367	5027.930664
1004.027344	5222.553711
1002.902344	5101.316406
1001.778320	5137.984375
1000.653320	5101.283691
999.528320	5002.374512
998.403320	4983.493652
997.278320	5082.350098
996.152344	5156.732910
995.026367	5071.219727
993.900391	4854.773438
992.773438	4924.717285
991.646484	4945.815430
990.519531	4851.548828
989.392578	4854.910156
988.265625	4778.443359
987.137695	4928.132813
986.009766	4820.653809
984.881836	4855.039551
983.752930	4831.809082
982.624023	4748.785156
981.495117	4854.024414
980.366211	4821.952637
979.236328	4796.534668
978.106445	4815.387207
976.976563	4787.768555
975.846680	4822.097168
974.715820	4719.298340
973.585938	4784.580078
972.454102	4774.675293
971.323242	4879.694824
970.191406	4852.096680
969.060547	4934.960938
967.927734	5044.291016
966.795898	5124.867188
965.663086	5152.425781
964.530273	5475.717773
963.397461	5381.823730
962.264648	5674.034668
961.130859	5721.295410
959.997070	5989.043457
958.863281	5884.094238
957.729492	6021.643066
956.594727	6031.320313
955.459961	5774.413574
954.325195	5823.788086
953.189453	5699.170410
952.053711	5537.178711
950.917969	5271.804199
949.782227	5169.397949
948.646484	5078.037598
947.509766	4973.519531
946.373047	4866.848145
945.235352	4786.608398
944.098633	4750.369141
942.960938	4657.003906
941.823242	4684.528809
940.685547	4760.369629
939.546875	4757.110352
938.408203	4670.413086
937.269531	4605.706543
936.129883	4628.820313
934.991211	4708.975586
933.851563	4756.187012
932.711914	4645.458008
931.571289	4642.226563
930.431641	4779.306152
929.291016	4578.778809
928.149414	4816.613281
927.008789	4690.656250
925.867188	4761.889160
924.725586	4675.417969
923.583984	4648.098633
922.441406	4776.204102
921.299805	4575.988281
920.157227	4669.044434
919.013672	4626.437500
917.871094	4485.436523
916.727539	4665.907715
915.583984	4592.725098
914.439453	4521.760254
913.295898	4483.602051
912.151367	4478.227539
911.006836	4514.351563
909.861328	4546.091797
908.716797	4558.170410
907.571289	4568.060547
906.424805	4560.489258
905.279297	4581.281250
904.132813	4471.199707
902.986328	4472.376465
901.839844	4619.618652
900.692383	4559.731445
899.545898	4549.991211
898.398438	4570.754883
897.250000	4556.659180
896.102539	4605.721191
894.954102	4639.520508
893.805664	4658.067383
892.656250	4554.739746
891.507813	4571.121094
890.358398	4567.917480
889.208984	4643.004883
888.058594	4613.695313
886.908203	4582.225098
885.758789	4515.996582
884.607422	4488.906738
883.457031	4503.102051
882.305664	4493.400879
881.154297	4477.189941
880.002930	4408.886719
878.850586	4459.980957
877.698242	4445.957031
876.545898	4449.293457
875.393555	4331.173340
874.240234	4332.365234
873.086914	4335.724121
871.933594	4293.566406
870.780273	4329.435059
869.625977	4360.954590
868.471680	4414.118164
867.317383	4417.453125
866.162109	4338.518555
865.007813	4458.748047
863.852539	4343.051758
862.696289	4428.609375
861.541016	4412.468750
860.384766	4385.521973
859.228516	4522.899414
858.072266	4361.925781
856.915039	4224.795898
855.757813	4334.027832
854.600586	4356.808594
853.442383	4208.974121
852.285156	4305.180176
851.126953	4418.611328
849.968750	4380.924316
848.809570	4308.732422
847.650391	4253.829590
846.491211	4250.710449
845.332031	4402.833984
844.171875	4255.252930
843.012695	4327.565430
841.851563	4266.254395
840.691406	4312.680176
839.530273	4348.316406
838.369141	4284.888184
837.208008	4286.069824
836.046875	4323.838867
834.884766	4411.080566
833.722656	4390.719238
832.560547	4264.979004
831.397461	4238.208496
830.234375	4359.785645
829.071289	4311.512207
827.908203	4213.836914
826.744141	4212.880859
825.580078	4284.951660
824.416016	4363.431641
823.251953	4302.328613
822.086914	4397.939453
820.921875	4308.958984
819.756836	4271.508301
818.590820	4302.711914
817.425781	4308.167969
816.259766	4279.317871
815.092773	4295.493164
813.926758	4266.658203
812.759766	4289.255859
811.592773	4264.718750
810.424805	4263.749512
809.257813	4179.279785
808.089844	4298.199707
806.920898	4207.339844
805.752930	4304.802734
804.583984	4237.511719
803.415039	4266.487793
802.246094	4248.411621
801.076172	4270.958496
799.906250	4216.558105
798.736328	4328.840332
797.566406	4212.501953
796.395508	4337.546875
795.224609	4456.129395
794.053711	4393.208008
792.881836	4607.762207
791.710938	4363.467773
790.538086	4494.733887
789.366211	4529.966309
788.194336	4486.288086
787.021484	4493.792480
785.848633	4420.303711
784.674805	4329.801758
783.500977	4360.769043
782.327148	4355.514648
781.153320	4207.595703
779.979492	4310.949707
778.804688	4373.817383
777.629883	4313.237793
776.454102	4333.527344
775.279297	4343.172363
774.103516	4303.904785
772.927734	4332.685547
771.750977	4289.186523
770.575195	4273.332031
769.398438	4308.472168
768.220703	4226.775391
767.043945	4348.973633
765.866211	4339.487305
764.688477	4349.108398
763.510742	4244.132813
762.332031	4334.390137
761.153320	4380.063477
759.974609	4472.368652
758.794922	4462.864746
757.616211	4408.853027
756.436523	4482.014648
755.255859	4536.074707
754.076172	4664.246094
752.895508	4622.941895
751.714844	4704.455078
750.533203	4944.685547
749.352539	5110.737305
748.170898	5264.017578
746.988281	5508.184082
745.806641	5885.470703
744.624023	6224.525879
743.441406	6931.231445
742.258789	7994.766602
741.075195	9501.513672
739.891602	11565.236328
738.708008	13691.368164
737.523438	16838.443359
736.339844	19667.435547
735.155273	21615.080078
733.969727	23137.726563
732.785156	23512.125000
731.599609	22663.138672
730.414063	20836.195313
729.227539	18187.962891
728.041992	15635.782227
726.855469	13063.702148
725.667969	11070.000000
724.481445	9391.017578
723.293945	8253.944336
722.106445	7296.327637
720.918945	6749.552734
719.730469	6133.591309
718.541992	5839.773438
717.353516	5668.074219
716.164063	5321.929688
714.975586	5192.471680
713.786133	5113.514648
712.595703	4776.139648
711.406250	4571.267578
710.215820	4746.640625
709.025391	4625.860840
707.833984	4547.122559
706.642578	4409.652832
705.451172	4471.589355
704.259766	4537.692871
703.068359	4454.851074
701.875977	4537.702637
700.683594	4383.620117
699.490234	4497.888184
698.297852	4473.803223
697.104492	4368.024902
695.910156	4509.445313
694.716797	4575.415527
693.522461	4586.923340
692.328125	4634.007813
691.132813	4612.015137
689.938477	4723.925781
688.743164	4593.158691
687.547852	4771.937012
686.351563	4618.221191
685.155273	4617.157227
683.958984	4570.121094
682.762695	4621.297852
681.565430	4423.894043
680.368164	4420.786133
679.170898	4438.557129
677.973633	4318.560059
676.775391	4426.077148
675.577148	4343.690918
674.378906	4384.406250
673.179688	4452.211426
671.980469	4330.262695
670.781250	4550.208984
669.581055	4447.048340
668.381836	4504.358398
667.181641	4428.333008
665.980469	4695.949219
664.780273	4538.717285
663.579102	4562.647949
662.377930	4673.970215
661.175781	4577.186523
659.973633	4648.932129
658.771484	4664.495605
657.569336	4815.193359
656.367188	4799.531250
655.164063	4846.220215
653.960938	4776.538574
652.756836	4943.687012
651.552734	5029.766602
650.348633	4995.385742
649.144531	5000.458984
647.939453	5040.809082
646.735352	5122.635742
645.529297	5104.857910
644.324219	5014.503906
643.118164	5081.765625
641.912109	5144.850098
640.706055	5241.062988
639.499023	5148.687988
638.292969	5277.998047
637.084961	5343.048340
635.877930	5279.698730
634.669922	5522.737305
633.461914	5852.582031
632.253906	5633.980469
631.044922	5971.920898
629.836914	6028.445801
628.626953	6101.484863
627.417969	6064.932617
626.208008	6022.196777
624.998047	6117.913574
623.788086	6077.250000
622.577148	6011.822754
621.366211	5872.094727
620.155273	5786.101563
618.944336	5609.341797
617.732422	5570.904297
616.520508	5309.699219
615.308594	5279.597656
614.095703	5121.673828
612.882813	5013.295898
611.669922	4865.810547
610.457031	4757.541504
609.243164	4663.742188
608.029297	4584.401855
606.815430	4486.567383
605.600586	4534.933105
604.385742	4461.851074
603.170898	4611.020508
601.955078	4398.071289
600.740234	4473.147461
599.524414	4443.325684
598.307617	4440.240234
597.091797	4420.714844
595.875000	4524.481445
594.658203	4414.558594
593.440430	4395.051758
592.222656	4437.152344
591.004883	4462.810547
589.787109	4414.572754
588.568359	4464.845703
587.349609	4408.423828
586.130859	4421.758301
584.912109	4418.683105
583.692383	4395.109375
582.472656	4508.861328
581.251953	4567.237305
580.032227	4447.363281
578.811523	4532.350586
577.589844	4564.061035
576.369141	4499.542480
575.147461	4623.343750
573.925781	4644.779297
572.703125	4700.981445
571.481445	4661.032227
570.258789	4686.532715
569.035156	4846.942383
567.812500	4849.905762
566.588867	4777.265137
565.365234	4908.941406
564.140625	4928.226563
562.916992	4863.784668
561.692383	4915.732910
560.466797	4812.545410
559.242188	4715.526855
558.016602	4802.152832
556.791016	4811.235840
555.564453	4750.987305
554.337891	4745.807617
553.111328	4679.487305
551.884766	4837.336426
550.657227	4830.102539
549.429688	4861.568359
548.202148	4844.150879
546.974609	4879.669922
545.746094	4825.620117
544.517578	4909.961914
543.288086	5075.636719
542.058594	5159.880371
540.829102	5142.415527
539.599609	5106.662598
538.370117	5158.320801
537.139648	5230.273926
535.909180	5202.650391
534.677734	5203.473633
533.446289	5133.227051
532.214844	4961.508789
530.983398	4830.462402
529.750977	4792.816406
528.519531	4836.334473
527.286133	4754.083984
526.053711	4686.065430
524.820313	4719.440430
523.586914	4785.228516
522.353516	4891.512207
521.119141	5052.443359
519.884766	4877.088379
518.650391	4774.711426
517.415039	4708.820801
516.179688	4636.889160
514.944336	4615.577637
513.708984	4580.114258
