#Wave		#Intensity
1585.210938	8124.841797
1584.209961	8102.363281
1583.208984	8113.169922
1582.208008	7966.685547
1581.206055	8032.429688
1580.204102	7930.942871
1579.202148	8076.508301
1578.200195	7990.020508
1577.198242	8065.680176
1576.195313	7936.840820
1575.192383	8209.425781
1574.189453	7955.985352
1573.186523	8011.652344
1572.182617	8102.176758
1571.178711	8137.862305
1570.174805	8121.234375
1569.170898	7885.502441
1568.166992	8018.295898
1567.162109	8083.834473
1566.158203	7972.672852
1565.153320	8020.778809
1564.147461	7882.314941
1563.142578	7970.208008
1562.136719	7968.557617
1561.130859	7837.646973
1560.125000	7972.713379
1559.119141	8152.448730
1558.113281	7956.990723
1557.106445	8099.398926
1556.099609	8125.037109
1555.092773	8120.872070
1554.084961	8129.119141
1553.078125	7943.793457
1552.070313	8051.318848
1551.062500	8104.226074
1550.054688	7995.902832
1549.045898	8046.318848
1548.038086	7903.344727
1547.029297	8090.080566
1546.020508	8051.234375
1545.011719	8069.388184
1544.001953	8092.487793
1542.992188	8051.187988
1541.982422	7925.720215
1540.972656	7854.765137
1539.962891	7989.263184
1538.952148	7779.753418
1537.942383	8003.273438
1536.931641	7608.337402
1535.919922	7831.799805
1534.909180	7859.847168
1533.897461	7739.567871
1532.886719	7641.581055
1531.874023	7862.378906
1530.862305	7791.580566
1529.850586	7869.002930
1528.837891	7815.517090
1527.825195	7932.403809
1526.812500	7780.192871
1525.799805	7672.465332
1524.786133	7860.859863
1523.772461	7748.226074
1522.758789	7887.200195
1521.745117	7794.333496
1520.731445	7790.253906
1519.716797	7776.316895
1518.702148	7996.489258
1517.687500	7920.920898
1516.672852	7884.795410
1515.657227	7981.671387
1514.642578	7997.253906
1513.626953	7951.287109
1512.610352	7907.800293
1511.594727	7881.555664
1510.579102	7852.861328
1509.562500	8070.144531
1508.545898	7852.067871
1507.529297	7993.042969
1506.511719	7679.204590
1505.494141	7827.528809
1504.477539	7825.907227
1503.458984	7775.154297
1502.441406	7773.543457
1501.423828	7720.365723
1500.405273	7829.244629
1499.386719	7726.985352
1498.368164	7857.903809
1497.348633	7976.500000
1496.330078	7969.940918
1495.310547	8100.726563
1494.291016	8064.719727
1493.271484	8102.272949
1492.250977	7951.082031
1491.231445	7804.854492
1490.210938	8016.386719
1489.190430	7899.599609
1488.168945	7924.900879
1487.148438	7935.500977
1486.126953	7985.263184
1485.105469	8035.004883
1484.083984	7989.293945
1483.061523	8198.032227
1482.040039	7902.820313
1481.017578	8084.588867
1479.995117	8339.629883
1478.971680	8186.346680
1477.949219	8135.771484
1476.925781	8246.480469
1475.902344	8342.486328
1474.878906	8467.760742
1473.855469	8324.375000
1472.831055	8452.041992
1471.806641	8528.396484
1470.782227	8541.269531
1469.757813	8444.343750
1468.733398	8642.619141
1467.708008	8645.704102
1466.682617	8782.895508
1465.657227	8978.538086
1464.631836	9020.546875
1463.605469	9267.230469
1462.579102	9260.434570
1461.552734	9192.746094
1460.526367	9288.250977
1459.500000	9483.541992
1458.472656	9396.373047
1457.445313	9440.665039
1456.417969	9336.506836
1455.390625	9409.985352
1454.362305	9403.166992
1453.334961	9216.400391
1452.306641	8932.459961
1451.277344	8950.051758
1450.249023	8933.611328
1449.219727	8683.921875
1448.191406	8891.033203
1447.162109	8787.179688
1446.131836	8710.079102
1445.102539	8730.119141
1444.072266	8762.287109
1443.041992	8707.078125
1442.011719	8821.727539
1440.981445	8657.372070
1439.950195	8711.352539
1438.918945	8517.991211
1437.887695	8540.462891
1436.856445	8621.092773
1435.825195	8529.642578
1434.792969	8610.241211
1433.760742	8596.339844
1432.728516	8364.493164
1431.696289	8411.177734
1430.663086	8319.863281
1429.629883	8189.864258
1428.596680	8096.213379
1427.563477	8295.320313
1426.530273	8042.054199
1425.496094	8127.434570
1424.461914	8162.008789
1423.427734	8249.745117
1422.393555	8202.112305
1421.358398	8130.337402
1420.323242	8133.476563
1419.288086	8056.914551
1418.252930	7963.481445
1417.217773	8200.823242
1416.181641	8244.974609
1415.145508	8091.230957
1414.109375	8130.561035
1413.073242	8283.244141
1412.036133	8021.063477
1411.000000	8192.994141
1409.962891	8191.287598
1408.924805	8360.699219
1407.887695	8392.692383
1406.849609	8578.854492
1405.812500	8598.745117
1404.773438	8510.260742
1403.735352	8530.156250
1402.697266	8807.602539
1401.658203	8779.293945
1400.619141	8919.423828
1399.580078	8992.137695
1398.540039	8891.654297
1397.500977	8964.342773
1396.460938	8926.411133
1395.420898	8826.001953
1394.380859	8833.773438
1393.339844	8711.801758
1392.298828	8697.973633
1391.257813	8751.395508
1390.216797	8718.355469
1389.175781	8572.500000
1388.133789	8772.318359
1387.091797	8744.091797
1386.049805	8744.666016
1385.007813	8901.146484
1383.964844	8597.129883
1382.922852	8916.610352
1381.879883	9140.074219
1380.835938	9178.907227
1379.792969	9198.554688
1378.749023	9349.950195
1377.706055	9465.355469
1376.661133	9484.929688
1375.617188	9595.468750
1374.573242	9631.760742
1373.528320	9548.382813
1372.483398	9567.919922
1371.438477	9463.060547
1370.392578	9315.196289
1369.347656	9191.302734
1368.301758	9318.471680
1367.255859	9137.267578
1366.208984	9135.356445
1365.163086	9030.714844
1364.116211	9071.819336
1363.069336	8757.083008
1362.022461	9022.659180
1360.974609	8832.191406
1359.927734	9009.335938
1358.879883	8943.026367
1357.832031	8800.404297
1356.783203	8946.436523
1355.735352	8870.641602
1354.686523	8821.101563
1353.637695	8962.268555
1352.588867	8958.008789
1351.539063	9001.400391
1350.490234	9085.269531
1349.440430	9421.550781
1348.390625	9467.197266
1347.339844	9591.384766
1346.290039	9748.839844
1345.239258	9877.672852
1344.188477	10089.719727
1343.137695	10170.854492
1342.085938	10463.604492
1341.034180	10451.899414
1339.982422	10744.465820
1338.930664	10839.652344
1337.878906	10958.558594
1336.826172	10849.356445
1335.773438	10925.457031
1334.720703	10992.027344
1333.667969	10871.013672
1332.614258	11034.883789
1331.561523	10821.360352
1330.507813	10693.338867
1329.453125	10748.023438
1328.399414	10477.773438
1327.344727	10349.902344
1326.290039	10314.539063
1325.235352	10110.911133
1324.180664	10066.132813
1323.125000	10101.922852
1322.070313	10097.429688
1321.014648	9877.439453
1319.958008	9773.554688
1318.902344	9747.827148
1317.845703	9554.080078
1316.789063	9729.529297
1315.732422	9625.759766
1314.675781	9486.555664
1313.618164	9444.360352
1312.560547	9406.910156
1311.502930	9291.474609
1310.445313	9093.377930
1309.386719	9320.638672
1308.329102	9058.839844
1307.270508	8950.657227
1306.210938	9014.883789
1305.152344	9057.835938
1304.092773	8878.916016
1303.033203	8926.596680
1301.973633	8769.010742
1300.914063	8800.182617
1299.853516	8663.912109
1298.792969	8777.610352
1297.732422	8768.687500
1296.671875	8538.240234
1295.611328	8687.234375
1294.549805	8539.348633
1293.488281	8490.443359
1292.426758	8432.138672
1291.364258	8406.816406
1290.302734	8162.610840
1289.240234	8311.492188
1288.177734	8189.748535
1287.114258	8218.597656
1286.051758	8223.916016
1284.988281	8259.797852
1283.924805	8117.009766
1282.861328	8148.197266
1281.796875	8205.217773
1280.732422	8405.516602
1279.667969	8185.307617
1278.603516	8397.265625
1277.539063	8508.180664
1276.473633	8550.978516
1275.408203	8558.555664
1274.342773	8617.747070
1273.277344	8508.018555
1272.210938	8663.349609
1271.145508	8727.168945
1270.079102	8493.239258
1269.011719	8683.629883
1267.945313	8513.075195
1266.877930	8537.041992
1265.810547	8560.999023
1264.743164	8423.362305
1263.674805	8332.608398
1262.607422	8305.093750
1261.539063	8043.561035
1260.470703	8048.875000
1259.401367	7930.203613
1258.333008	8080.543457
1257.263672	7961.914551
1256.194336	8039.710449
1255.125000	7939.837891
1254.054688	8010.593750
1252.985352	7793.952637
1251.915039	7764.268066
1250.843750	7788.308105
1249.773438	7882.382324
1248.702148	7967.078125
1247.630859	8009.729004
1246.559570	7910.026855
1245.488281	7887.350586
1244.416016	7878.677246
1243.343750	7981.935547
1242.271484	7966.250977
1241.199219	7771.095215
1240.125977	7948.880859
1239.053711	7849.335449
1237.980469	7931.523438
1236.906250	8013.675293
1235.833008	7944.447266
1234.758789	7914.821777
1233.684570	7899.172363
1232.610352	7948.682617
1231.536133	7832.996094
1230.460938	7715.032715
1229.385742	7743.619629
1228.310547	7748.944824
1227.235352	7975.086914
1226.159180	7747.966309
1225.083008	7788.136719
1224.006836	7867.779297
1222.930664	7652.437012
1221.853516	7746.004883
1220.777344	7665.423340
1219.700195	7703.244629
1218.622070	7555.412109
1217.544922	7595.559082
1216.466797	7737.745117
1215.388672	7650.291504
1214.310547	7706.620117
1213.232422	7707.292480
1212.153320	7754.313477
1211.074219	7780.460938
1209.995117	7820.495605
1208.916016	7802.612793
1207.835938	7831.046875
1206.755859	7720.567383
1205.675781	7732.803711
1204.595703	7698.753906
1203.514648	7701.734375
1202.434570	7808.799805
1201.353516	7675.314453
1200.271484	7675.984375
1199.190430	7584.190918
1198.108398	7589.500977
1197.026367	7617.913574
1195.944336	7567.770996
1194.862305	7515.339844
1193.779297	7458.312012
1192.696289	7553.674805
1191.613281	7522.051270
1190.530273	7557.360840
1189.446289	7387.322754
1188.362305	7505.682617
1187.278320	7310.360352
1186.194336	7430.989746
1185.109375	7436.311523
1184.024414	7432.411621
1182.939453	7456.162109
1181.854492	7337.076660
1180.768555	7312.470703
1179.683594	7285.571777
1178.597656	7353.071777
1177.510742	7418.240723
1176.424805	7186.531250
1175.337891	7233.301270
1174.250977	7365.157227
1173.164063	7163.502441
1172.077148	7191.852051
1170.989258	7293.747070
1169.901367	7119.814453
1168.813477	7210.191406
1167.724609	7249.990234
1166.636719	7165.748535
1165.547852	7157.318359
1164.458984	7210.875488
1163.369141	7335.561035
1162.280273	7132.044922
1161.190430	7132.803711
1160.100586	7188.611328
1159.010742	7168.716797
1157.919922	7116.731934
1156.829102	7337.548340
1155.738281	7177.834473
1154.647461	7176.287598
1153.555664	7190.775879
1152.464844	7358.707031
1151.373047	7279.266602
1150.280273	7389.872559
1149.188477	7388.278320
1148.095703	7453.044922
1147.002930	7430.846191
1145.910156	7289.715332
1144.817383	7345.312012
1143.723633	7446.611328
1142.629883	7465.575684
1141.536133	7431.968262
1140.441406	7473.774902
1139.347656	7408.197754
1138.252930	7376.906250
1137.158203	7409.562012
1136.062500	7462.749512
1134.967773	7321.909668
1133.872070	7359.118164
1132.776367	7307.335449
1131.679688	7394.709961
1130.583984	7322.416992
1129.487305	7473.586914
1128.390625	7597.337402
1127.292969	7413.377441
1126.196289	7455.062500
1125.098633	7505.840820
1124.000977	7406.284180
1122.903320	7402.402344
1121.804688	7419.009766
1120.706055	7524.372559
1119.607422	7383.937012
1118.508789	7516.560059
1117.409180	7385.283691
1116.310547	7351.845703
1115.210938	7350.250488
1114.110352	7260.008301
1113.010742	7394.783691
1111.910156	7256.856934
1110.809570	7257.552734
1109.708984	7294.584473
1108.607422	7247.588867
1107.506836	7389.028320
1106.405273	7464.587891
1105.303711	7156.641602
1104.201172	7157.354492
1103.098633	7255.594238
1101.996094	7197.326660
1100.893555	7152.686523
1099.791016	7105.798828
1098.687500	7124.647949
1097.583984	7134.425781
1096.480469	7098.895996
1095.376953	7117.732422
1094.272461	7156.937500
1093.167969	7273.088379
1092.063477	7167.399414
1090.958008	7149.999512
1089.853516	7302.269043
1088.748047	7140.099121
1087.642578	7124.975586
1086.536133	7152.811523
1085.430664	7259.741211
1084.324219	6955.357910
1083.217773	7213.649902
1082.110352	7117.209961
1081.003906	7273.732910
1079.896484	7195.382324
1078.789063	7013.232910
1077.680664	7169.673828
1076.573242	7222.258301
1075.464844	7044.731934
1074.356445	7266.464355
1073.247070	7127.335938
1072.138672	7037.861328
1071.029297	7137.743652
1069.919922	7095.624023
1068.809570	7021.982910
1067.700195	7164.595215
1066.589844	7194.553223
1065.479492	7109.680664
1064.368164	7123.880859
1063.257813	7122.321777
1062.146484	7224.255859
1061.035156	7247.416992
1059.922852	7178.364258
1058.811523	7143.066406
1057.699219	7184.211426
1056.586914	7139.937500
1055.473633	7241.729980
1054.361328	7019.995605
1053.248047	7115.030762
1052.134766	7111.225098
1051.021484	7118.645508
1049.907227	7144.017578
1048.792969	7169.377441
1047.678711	7024.224121
1046.564453	7206.604492
1045.449219	7171.385742
1044.333984	7167.569336
1043.218750	7174.961426
1042.103516	7173.385742
1040.987305	7187.493652
1039.871094	7203.834473
1038.754883	7242.562988
1037.638672	7252.166016
1036.521484	7272.957031
1035.404297	7345.212891
1034.287109	7321.222656
1033.169922	7192.100586
1032.051758	7304.583008
1030.933594	7300.739746
1029.815430	7314.781738
1028.697266	7250.589844
1027.578125	7441.167969
1026.458984	7374.740723
1025.339844	7357.481445
1024.220703	7445.185059
1023.100586	7289.494629
1021.980469	7243.245605
1020.860352	7286.282227
1019.740234	7505.559082
1018.619141	7242.918457
1017.498047	7433.114746
1016.376953	7288.776855
1015.255859	7215.835449
1014.133789	7209.786133
1013.011719	7223.792480
1011.889648	7333.583008
1010.767578	7258.466309
1009.644531	7261.316895
1008.521484	7326.500000
1007.398438	7264.787109
1006.274414	7185.298828
1005.151367	7334.994141
1004.027344	7246.627441
1002.902344	7336.199707
1001.778320	7238.977051
1000.653320	7357.406738
999.528320	7331.334473
998.403320	7234.175293
997.278320	7325.870117
996.152344	7199.883301
995.026367	7162.764648
993.900391	7105.683105
992.773438	7175.128906
991.646484	7069.254395
990.519531	7100.963867
989.392578	7179.233887
988.265625	7237.512695
987.137695	7204.872559
986.009766	7271.983887
984.881836	7217.189941
983.752930	7020.633789
982.624023	7158.616699
981.495117	7103.882813
980.366211	7102.306641
979.236328	7231.324219
978.106445	7127.923340
976.976563	7095.366699
975.846680	7023.008789
974.715820	7094.428223
973.585938	6935.872559
972.454102	7133.276367
971.323242	7089.701660
970.191406	7152.202148
969.060547	7132.940430
967.927734	7120.312500
966.795898	7240.171875
965.663086	7284.920410
964.530273	7309.785156
963.397461	7261.821289
962.264648	7238.144531
961.130859	7521.055176
959.997070	7468.664063
958.863281	7471.410645
957.729492	7374.970215
956.594727	7554.024902
955.459961	7484.045410
954.325195	7383.259277
953.189453	7302.336914
952.053711	7355.751465
950.917969	7131.793945
949.782227	7114.799316
948.646484	7137.415039
947.509766	7215.012695
946.373047	7103.442871
945.235352	7205.198242
944.098633	7069.498535
942.960938	7100.887207
941.823242	7075.132813
940.685547	7042.798828
939.546875	7181.787109
938.408203	7030.870605
937.269531	7053.448730
936.129883	7078.210449
934.991211	7107.349121
933.851563	7092.598145
932.711914	7205.065918
931.571289	7111.355957
930.431641	7168.959473
929.291016	7075.298340
928.149414	7170.135742
927.008789	7161.959473
925.867188	7193.212891
924.725586	7222.261719
923.583984	7163.720703
922.441406	7162.117188
921.299805	7057.657715
920.157227	6994.815430
919.013672	7124.495117
917.871094	7039.794922
916.727539	6920.148926
915.583984	6979.805176
914.439453	7011.023438
913.295898	7026.931641
912.151367	7071.230469
911.006836	6934.236328
909.861328	6952.333008
908.716797	7127.599121
907.571289	6981.952148
906.424805	7065.485352
905.279297	7031.176270
904.132813	7092.849121
902.986328	6977.866699
901.839844	6971.939453
900.692383	7081.533691
899.545898	7127.883301
898.398438	6906.241211
897.250000	6972.211426
896.102539	7062.105469
894.954102	7169.375977
893.805664	7152.527832
892.656250	7076.929688
891.507813	7105.797852
890.358398	7110.725098
889.208984	7237.433594
888.058594	7068.390137
886.908203	7110.273926
885.758789	6989.145508
884.607422	6985.399414
883.457031	6918.658691
882.305664	7025.689453
881.154297	7004.565918
880.002930	7020.354492
878.850586	7016.602539
877.698242	7073.606445
876.545898	6978.731445
875.393555	6844.858887
874.240234	6875.841309
873.086914	6863.451660
871.933594	6779.543457
870.780273	6929.696289
869.625977	6910.802246
868.471680	6926.569824
867.317383	7031.112305
866.162109	6945.093262
865.007813	6898.072266
863.852539	7086.942871
862.696289	6931.736816
861.541016	6878.259766
860.384766	7008.618164
859.228516	7011.358887
858.072266	6966.544434
856.915039	7070.859863
855.757813	6930.987793
854.600586	7007.182617
853.442383	6947.290527
852.285156	7051.513672
851.126953	6948.465820
849.968750	6983.581543
848.809570	7087.724121
847.650391	6963.165039
846.491211	6806.312500
845.332031	6875.924316
844.171875	7005.862305
843.012695	6952.552246
841.851563	6897.111328
840.691406	6781.377441
839.530273	6708.769531
838.369141	6840.748535
837.208008	6744.479004
836.046875	6872.084473
834.884766	6750.029297
833.722656	6851.759277
832.560547	6882.467773
831.397461	6855.103516
830.234375	6842.799805
829.071289	6798.261719
827.908203	6820.356445
826.744141	6780.139160
825.580078	6830.148926
824.416016	6886.577148
823.251953	6846.370605
822.086914	6965.013672
820.921875	6776.739258
819.756836	6948.978516
818.590820	6747.922363
817.425781	6787.133789
816.259766	6708.409668
815.092773	6826.918945
813.926758	6754.649414
812.759766	6791.679199
811.592773	6783.708984
810.424805	6867.827148
809.257813	6825.585938
808.089844	6811.190430
806.920898	6728.319336
805.752930	6698.974609
804.583984	6817.238770
803.415039	6730.143555
802.246094	6749.993164
801.076172	6688.603516
799.906250	6627.241211
798.736328	6527.446289
797.566406	6630.631836
796.395508	6671.834961
795.224609	6661.774414
794.053711	6696.546875
792.881836	6838.013184
791.710938	6665.756836
790.538086	6841.296875
789.366211	6718.170410
788.194336	6703.845215
787.021484	6785.456055
785.848633	6681.606934
784.674805	6812.192871
783.500977	6797.856934
782.327148	6715.372559
781.153320	6794.755859
779.979492	6720.823730
778.804688	6638.411621
777.629883	6749.674805
776.454102	6626.871582
775.279297	6765.735352
774.103516	6621.719238
772.927734	6798.787109
771.750977	6584.687500
770.575195	6785.056641
769.398438	6728.269531
768.220703	6673.631836
767.043945	6646.624512
765.866211	6594.152832
764.688477	6730.611328
763.510742	6665.410645
762.332031	6564.172363
761.153320	6696.300293
759.974609	6834.729004
758.794922	6708.078125
757.616211	6755.295410
756.436523	6883.018555
755.255859	6845.425781
754.076172	6852.332031
752.895508	6922.765625
751.714844	6997.400879
750.533203	7004.265625
749.352539	7296.820313
748.170898	7265.528809
746.988281	7306.170410
745.806641	7488.483887
744.624023	7873.687012
743.441406	8159.363281
742.258789	8768.249023
741.075195	9345.162109
739.891602	10312.599609
738.708008	11351.396484
737.523438	12374.936523
736.339844	13452.889648
735.155273	14228.555664
733.969727	14676.822266
732.785156	14639.704102
731.599609	14301.018555
730.414063	13791.697266
729.227539	12854.681641
728.041992	11871.729492
726.855469	10699.593750
725.667969	9867.151367
724.481445	9220.424805
723.293945	8672.958984
722.106445	8289.941406
720.918945	7978.657227
719.730469	7743.264648
718.541992	7556.363770
717.353516	7472.604004
716.164063	7197.536621
714.975586	7027.705566
713.786133	6767.577637
712.595703	6772.326172
711.406250	6697.243164
710.215820	6645.296875
709.025391	6689.964844
707.833984	6585.560547
706.642578	6546.267090
705.451172	6540.564941
704.259766	6522.277832
703.068359	6625.647461
701.875977	6552.828613
700.683594	6421.342773
699.490234	6445.016602
698.297852	6556.688477
697.104492	6555.179688
695.910156	6576.710449
694.716797	6583.572754
693.522461	6579.963867
692.328125	6731.241699
691.132813	6723.414063
689.938477	6751.155273
688.743164	6601.096680
687.547852	6812.870605
686.351563	6786.213867
685.155273	6648.790527
683.958984	6722.486816
682.762695	6656.172852
681.565430	6635.840820
680.368164	6509.018066
679.170898	6684.976563
677.973633	6522.715820
676.775391	6640.159180
675.577148	6655.319336
674.378906	6572.437500
673.179688	6656.421387
671.980469	6623.613281
670.781250	6663.773438
669.581055	6712.250000
668.381836	6612.781250
667.181641	6694.573242
665.980469	6747.172852
664.780273	6972.552246
663.579102	6775.282227
662.377930	6815.339355
661.175781	6795.041504
659.973633	6970.278320
658.771484	6933.316406
657.569336	6992.009766
656.367188	7096.405273
655.164063	7088.532227
653.960938	7165.846680
652.756836	7170.423340
651.552734	7141.770508
650.348633	7133.892090
649.144531	7292.076660
647.939453	7234.359863
646.735352	7220.240234
645.529297	7241.389160
644.324219	7127.729492
643.118164	7320.977051
641.912109	7134.800293
640.706055	7070.979492
639.499023	7224.738281
638.292969	7252.068359
637.084961	7165.482910
635.877930	7194.883789
634.669922	7251.180176
633.461914	7301.241211
632.253906	7417.487793
631.044922	7246.150879
629.836914	7339.606934
628.626953	7242.799805
627.417969	7387.890137
626.208008	7388.247559
624.998047	7138.599121
623.788086	7205.115234
622.577148	7044.426758
621.366211	7075.832520
620.155273	7092.773926
618.944336	6829.032715
617.732422	6887.288086
616.520508	6844.437500
615.308594	6877.913086
614.095703	6859.826172
612.882813	6852.054199
611.669922	6702.082520
610.457031	6657.261719
609.243164	6771.077637
608.029297	6683.011719
606.815430	6541.452148
605.600586	6457.596191
604.385742	6398.475098
603.170898	6582.174805
601.955078	6498.366699
600.740234	6634.654785
599.524414	6585.826660
598.307617	6436.292969
597.091797	6523.175293
595.875000	6494.952637
594.658203	6437.983398
593.440430	6450.867676
592.222656	6398.041016
591.004883	6316.498535
589.787109	6444.332031
588.568359	6389.490234
587.349609	6353.135742
586.130859	6462.412109
584.912109	6354.291504
583.692383	6512.715332
582.472656	6384.137695
581.251953	6612.146484
580.032227	6493.847168
578.811523	6439.092285
577.589844	6400.742676
576.369141	6542.556152
575.147461	6575.831543
573.925781	6576.353027
572.703125	6580.964844
571.481445	6491.494629
570.258789	6573.823242
569.035156	6631.582520
567.812500	6679.095215
566.588867	6740.888672
565.365234	6653.525879
564.140625	6674.448242
562.916992	6746.408203
561.692383	6616.233887
560.466797	6661.640625
559.242188	6739.673340
558.016602	6642.229980
556.791016	6601.937988
555.564453	6667.694824
554.337891	6682.456055
553.111328	6627.914551
551.884766	6650.828125
550.657227	6582.058594
549.429688	6674.218750
548.202148	6597.330078
546.974609	6654.835449
545.746094	6559.668457
544.517578	6741.277832
543.288086	6711.232422
542.058594	6736.115234
540.829102	6803.686523
539.599609	6779.745117
538.370117	6831.014648
537.139648	6861.940430
535.909180	6647.041016
534.677734	6545.978027
533.446289	6739.391113
532.214844	6658.653320
530.983398	6582.012207
529.750977	6712.377930
528.519531	6660.103027
527.286133	6573.372559
526.053711	6756.369141
524.820313	6612.893066
523.586914	6536.366699
522.353516	6559.165039
521.119141	6713.631836
519.884766	6592.576172
518.650391	6795.560059
517.415039	6767.665039
516.179688	6587.984863
514.944336	6620.854492
513.708984	6548.511719
