#Wave	#Intensity
2109.007813	6599.138672
2107.496094	6562.752441
2105.984375	6635.743164
2104.470703	6510.318359
2102.958984	6651.055664
2101.445313	6520.724121
2099.933594	6524.271973
2098.419922	6512.952148
2096.90625	6534.665527
2095.390625	6470.514648
2093.876953	6368.424805
2092.361328	6400.058105
2090.845703	6448.177246
2089.332031	6344.509277
2087.814453	6364.582031
2086.298828	6320.337891
2084.783203	6416.241699
2083.265625	6388.487793
2081.748047	6332.732422
2080.230469	6141.905273
2078.712891	6226.234863
2077.195313	6269.358398
2075.677734	6274.595215
2074.158203	6212.339844
2072.638672	6148.46582
2071.119141	6206.377441
2069.599609	6267.554199
2068.080078	6221.800781
2066.560547	6167.845703
2065.039063	6233.922852
2063.517578	6076.440918
2061.996094	6119.503906
2060.474609	6162.54834
2058.953125	6157.94043
2057.429688	6095.857422
2055.908203	6053.503418
2054.384766	6170.392578
2052.861328	6105.064453
2051.337891	6049.609375
2049.814453	6089.32373
2048.289063	6017.494629
2046.765625	6070.316406
2045.240234	6111.640137
2043.714844	6207.03418
2042.189453	6113.938477
2040.664063	5991.392578
2039.136719	5981.919922
2037.609375	6003.566406
2036.083984	6059.586914
2034.556641	6053.379395
2033.029297	6099.545898
2031.5	5941.162598
2029.972656	6090.393555
2028.443359	6002.408203
2026.914063	6069.803223
2025.386719	6048.888184
2023.855469	5977.3125
2022.326172	6054.474121
2020.796875	5979.660645
2019.265625	6084.557129
2017.734375	6112.653809
2016.203125	6088.490723
2014.671875	6003.938965
2013.140625	5984.705566
2011.607422	6029.115723
2010.076172	6088.189453
2008.542969	6049.37793
2007.009766	5997.537598
2005.476563	6033.755859
2003.943359	6016.17041
2002.408203	6040.961426
2000.875	6070.630371
1999.339844	5997.664551
1997.804688	6024.072266
1996.269531	5962.544922
1994.732422	6058.947266
1993.197266	6069.049805
1991.660156	6100.30127
1990.123047	6102.256348
1988.585938	6018.006348
1987.048828	6208.610352
1985.511719	6057.716309
1983.972656	5967.027832
1982.435547	5907.254395
1980.896484	6037.603516
1979.357422	5977.84082
1977.818359	6028.539551
1976.279297	6011.020996
1974.738281	5936.690918
1973.197266	5987.366211
1971.658203	5919.563477
1970.117188	5958.864258
1968.576172	5996.526367
1967.033203	5896.331543
1965.492188	6040.996582
1963.949219	5978.117188
1962.40625	6108.117676
1960.863281	6014.465332
1959.320313	5928.95166
1957.777344	5966.563477
1956.232422	5989.585449
1954.689453	6077.354004
1953.144531	5902.878418
1951.599609	5987.391602
1950.054688	6010.38916
1948.507813	6057.640137
1946.962891	5941.535156
1945.416016	5993.630859
1943.869141	5956.796875
1942.322266	5978.159668
1940.775391	5955.886719
1939.228516	6046.706055
1937.679688	6003.430664
1936.132813	6027.995117
1934.583984	6086.45166
1933.035156	5991.544434
1931.486328	5988.660645
1929.935547	5911.561523
1928.386719	5963.540527
1926.835938	6034.850098
1925.285156	5919.092285
1923.734375	5942.019531
1922.183594	5916.585449
1920.632813	5981.398438
1919.080078	5918.913086
1917.527344	5903.163574
1915.976563	5880.979492
1914.423828	5973.114746
1912.869141	5942.876465
1911.316406	5973.805176
1909.761719	5892.091797
1908.208984	5923.017578
1906.654297	5986.096191
1905.099609	5896.39209
1903.544922	5835.662598
1901.988281	5932.472168
1900.433594	5971.390625
1898.876953	5957.274414
1897.320313	5866.063965
1895.763672	5975.631836
1894.207031	5897.300293
1892.648438	5854.316895
1891.091797	5891.596191
1889.533203	5996.251953
1887.974609	5879.47998
1886.416016	5905.50293
1884.857422	5990.845703
1883.298828	5911.021973
1881.738281	5901.758301
1880.177734	5932.561523
1878.617188	5894.457031
1877.056641	5906.025879
1875.496094	5956.025879
1873.935547	5921.142578
1872.373047	5902.282227
1870.810547	5955.45166
1869.248047	5882.186035
1867.685547	5919.338867
1866.123047	6039.648926
1864.560547	5948.820801
1862.996094	5806.868652
1861.431641	5851.997559
1859.867188	5825.191406
1858.302734	5806.384766
1856.738281	5940.942383
1855.171875	5875.802246
1853.607422	5943.222656
1852.041016	6040.946777
1850.474609	5907.194336
1848.908203	5824.562012
1847.341797	5965.325195
1845.773438	5973.63623
1844.207031	6015.433105
1842.638672	5913.713867
1841.070313	5759.432617
1839.501953	5997.278809
1837.931641	5874.912598
1836.363281	5991.55957
1834.792969	5907.472168
1833.222656	5866.414551
1831.652344	5901.792969
1830.082031	5999.233887
1828.511719	5870.655762
1826.941406	5850.323242
1825.369141	5914.307617
1823.796875	5994.168457
1822.224609	5830.717285
1820.652344	5958.25293
1819.078125	5910.902832
1817.505859	6025.654785
1815.931641	5995.785645
1814.357422	6113.647461
1812.783203	5964.668945
1811.208984	5926.892578
1809.634766	5987.54834
1808.058594	5913.280273
1806.484375	5910.444824
1804.908203	5990.101074
1803.332031	5936.497559
1801.753906	5984.400391
1800.177734	5951.429199
1798.601563	5972.362793
1797.023438	5993.287109
1795.445313	6014.202148
1793.867188	6008.180176
1792.289063	6081.344238
1790.708984	6095.893555
1789.130859	6047.115723
1787.550781	5985.696777
1785.970703	6038.231934
1784.390625	6002.152344
1782.810547	6098.94873
1781.228516	6141.937988
1779.646484	6189.651855
1778.066406	6042.922363
1776.484375	6111.180664
1774.902344	6120.949707
1773.318359	6219.17627
1771.736328	6040.976074
1770.152344	6053.911133
1768.568359	6082.626465
1766.984375	6177.620117
1765.400391	6196.829102
1763.816406	6184.476074
1762.230469	6085.374023
1760.646484	6114.05127
1759.060547	6207.359375
1757.474609	6152.452148
1755.888672	6291.416016
1754.300781	6383.05127
1752.714844	6302.935059
1751.126953	6268.527832
1749.539063	6240.433105
1747.951172	6407.568359
1746.363281	6305.477051
1744.775391	6393.84375
1743.185547	6420.812012
1741.595703	6402.151367
1740.007813	6449.550293
1738.416016	6388.4375
1736.826172	6415.382813
1735.236328	6491.038086
1733.644531	6299.532227
1732.052734	6354.756348
1730.462891	6457.077148
1728.869141	6567.206543
1727.277344	6400.964844
1725.685547	6355.659668
1724.091797	6446.906738
1722.498047	6522.424805
1720.904297	6706.149902
1719.310547	6706.299316
1717.716797	6662.542969
1716.121094	6730.111328
1714.527344	6697.339844
1712.931641	6637.941895
1711.335938	6780.672852
1709.740234	6812.130859
1708.142578	6896.820801
1706.546875	6934.50293
1704.949219	6882.942383
1703.351563	6809.493164
1701.753906	6952.003906
1700.15625	6927.065918
1698.558594	7041.337891
1696.958984	7105.522461
1695.359375	7057.115234
1693.759766	7149.40332
1692.160156	7201.020508
1690.560547	7124.5
1688.960938	7271.385742
1687.359375	7196.443359
1685.757813	7255.812012
1684.15625	7357.304199
1682.554688	7372.912598
1680.953125	7418.161621
1679.349609	7532.033691
1677.748047	7519.518066
1676.144531	7711.290527
1674.541016	7820.349609
1672.9375	7697.10791
1671.332031	7918.329102
1669.728516	8002.34375
1668.123047	7941.450684
1666.517578	8150.018066
1664.912109	8224.585938
1663.306641	8409.652344
1661.701172	8473.237305
1660.09375	8613.043945
1658.486328	8651.665039
1656.878906	8895.588867
1655.271484	8912.360352
1653.664063	9151.458984
1652.056641	9407.554688
1650.447266	9470.829102
1648.837891	9532.522461
1647.228516	9830.31543
1645.619141	9940.051758
1644.009766	10079.244141
1642.398438	10117.46582
1640.789063	10192.922852
1639.177734	10425.079102
1637.566406	10489.576172
1635.955078	10820.842773
1634.341797	10753.407227
1632.730469	11134.091797
1631.117188	11192.178711
1629.503906	11292.086914
1627.890625	11393.500977
1626.277344	11769.074219
1624.662109	11892.026367
1623.048828	11931.304688
1621.433594	12205.889648
1619.818359	12471.069336
1618.203125	12395.679688
1616.587891	12685.459961
1614.970703	12633.257813
1613.353516	12693.974609
1611.738281	12723.740234
1610.121094	12857.066406
1608.501953	13273.169922
1606.884766	13381.59668
1605.267578	13633.650391
1603.648438	14064.765625
1602.029297	14210.012695
1600.410156	14525.025391
1598.791016	14653.131836
1597.169922	14656.178711
1595.550781	14832.029297
1593.929688	14984.666016
1592.308594	14774.805664
1590.6875	14740.813477
1589.064453	14827.080078
1587.443359	14916.390625
1585.820313	14891.631836
1584.197266	15094.893555
1582.574219	14969.987305
1580.951172	15146.962891
1579.328125	15422.398438
1577.703125	15613.054688
1576.080078	15754.379883
1574.455078	15997.194336
1572.830078	15941.47168
1571.203125	15950.367188
1569.578125	16066.892578
1567.951172	16081.904297
1566.324219	15930.913086
1564.697266	15680.102539
1563.070313	15599.930664
1561.443359	15438.383789
1559.816406	15238.512695
1558.1875	15118.563477
1556.558594	15007.875
1554.929688	15156.595703
1553.300781	14964.623047
1551.669922	15259.019531
1550.041016	14981.217773
1548.410156	15056.209961
1546.779297	14990.12793
1545.148438	15150.916016
1543.517578	15107.825195
1541.884766	14882.4375
1540.251953	14983.40332
1538.621094	14871.459961
1536.988281	14724.348633
1535.353516	14539.030273
1533.720703	14174.731445
1532.085938	14026.331055
1530.453125	13755.611328
1528.818359	13532.419922
1527.183594	13602.911133
1525.546875	13184.162109
1523.912109	13100.322266
1522.275391	13089.867188
1520.640625	12984.692383
1519.003906	12658.080078
1517.365234	12801.963867
1515.728516	12936.624023
1514.091797	13001.006836
1512.453125	12915.798828
1510.814453	12917.597656
1509.175781	12782.100586
1507.537109	12867.80957
1505.896484	12804.046875
1504.257813	12757.080078
1502.617188	12717.75293
1500.976563	12451.387695
1499.335938	12488.317383
1497.693359	12543.508789
1496.052734	12478.368164
1494.410156	12349.308594
1492.767578	12424.280273
1491.125	12598.139648
1489.482422	12703.454102
1487.837891	12878.697266
1486.195313	13009.758789
1484.550781	13411.423828
1482.90625	13426.772461
1481.261719	13432.994141
1479.617188	13495.436523
1477.970703	13346.674805
1476.324219	13238.986328
1474.677734	13274.091797
1473.03125	12943.277344
1471.384766	12802.347656
1469.738281	12427.765625
1468.089844	12048.791992
1466.441406	11988.541992
1464.792969	11676.556641
1463.144531	11593.666992
1461.496094	11334.959961
1459.845703	11199.129883
1458.197266	11136.09375
1456.546875	10939.764648
1454.896484	10876.80957
1453.244141	10739.678711
1451.59375	10486.027344
1449.941406	10414.126953
1448.291016	10259.021484
1446.638672	10026.819336
1444.984375	9912.706055
1443.332031	9797.129883
1441.679688	9686.138672
1440.025391	9656.827148
1438.371094	9506.616211
1436.716797	9477.355469
1435.0625	9454.148438
1433.40625	9382.618164
1431.75	9166.150391
1430.095703	9207.943359
1428.439453	8970.474609
1426.78125	9151.125977
1425.125	8901.700195
1423.466797	9000.831055
1421.810547	8851.080078
1420.152344	8705.916992
1418.494141	8731.158203
1416.833984	8955.328125
1415.175781	8817.768555
1413.515625	8794.759766
1411.855469	8809.413086
1410.195313	8747.263672
1408.535156	8923.005859
1406.875	8954.176758
1405.212891	9113.243164
1403.550781	9200.023438
1401.888672	9351.444336
1400.226563	9516.333008
1398.564453	9487.195313
1396.900391	9567.802734
1395.238281	9504.098633
1393.574219	9440.421875
1391.910156	9375.269531
1390.244141	9311.646484
1388.580078	9117.416016
1386.914063	9172.47168
1385.248047	9180.975586
1383.582031	9216.484375
1381.916016	9317.988281
1380.25	9309.952148
1378.582031	9240.436523
1376.916016	9302.884766
1375.248047	9206.417969
1373.578125	9268.844727
1371.910156	9304.274414
1370.242188	9230.337891
1368.572266	9229.81543
1366.902344	9356.5625
1365.232422	9432.355469
1363.5625	9337.499023
1361.890625	9251.661133
1360.220703	9316.953125
1358.548828	9210.216797
1356.876953	9281.46875
1355.205078	9274.949219
1353.53125	9196.6875
1351.859375	9236.512695
1350.185547	9669.243164
1348.511719	9665.628906
1346.837891	9835.243164
1345.164063	10128.704102
1343.488281	10332.472656
1341.8125	10619.724609
1340.138672	10966.530273
1338.460938	10979.038086
1336.785156	11113.833984
1335.109375	11197.87207
1333.431641	11082.115234
1331.753906	11271.94043
1330.076172	11089.162109
1328.398438	11058.416992
1326.720703	10988.959961
1325.041016	11063.974609
1323.361328	11076.426758
1321.681641	10980.21582
1320.001953	11061.131836
1318.322266	10957.526367
1316.640625	10964.036133
1314.960938	10631.477539
1313.279297	10618.726563
1311.597656	10632.736328
1309.914063	10340.59375
1308.232422	10204.588867
1306.548828	10178.569336
1304.865234	10042.65918
1303.181641	9909.776367
1301.498047	9913.526367
1299.814453	9712.458008
1298.128906	9705.860352
1296.443359	9605.803711
1294.757813	9571.050781
1293.072266	9503.689453
1291.386719	9635.016602
1289.699219	9391.285156
1288.011719	9445.519531
1286.324219	9341.202148
1284.636719	9312.472656
1282.949219	9178.612305
1281.259766	9189.905273
1279.572266	9489.838867
1277.882813	9523.254883
1276.193359	9501.911133
1274.501953	9681.753906
1272.8125	9808.275391
1271.121094	9896.294922
1269.429688	9965.057617
1267.738281	9937.722656
1266.046875	9968.025391
1264.353516	9713.196289
1262.662109	9365.430664
1260.96875	9289.519531
1259.275391	9182.638672
1257.582031	9196.834961
1255.886719	8958.6875
1254.193359	8759.00293
1252.498047	8925.205078
1250.802734	8794.924805
1249.107422	8825.404297
1247.410156	8730.579102
1245.714844	8615.162109
1244.017578	8492.429688
1242.320313	8502.324219
1240.623047	8388.505859
1238.925781	8234.983398
1237.226563	8191.931641
1235.527344	8172.445801
1233.828125	7992.586426
1232.128906	7955.499512
1230.429688	7949.313477
1228.728516	7904.898926
1227.029297	7817.871094
1225.328125	7792.61084
1223.626953	7795.280273
1221.923828	7815.57666
1220.222656	7590.579102
1218.519531	7671.116699
1216.816406	7667.935059
1215.113281	7636.866211
1213.410156	7507.490723
1211.707031	7601.175781
1210.001953	7627.345215
1208.296875	7618.307129
1206.591797	7557.95752
1204.886719	7557.731934
1203.179688	7573.626465
1201.474609	7593.908691
1199.767578	7518.966797
1198.060547	7509.960449
1196.353516	7552.203125
1194.644531	7654.443848
1192.9375	7471.252441
1191.228516	7554.442383
1189.519531	7573.228516
1187.810547	7546.666992
1186.099609	7659.025879
1184.390625	7723.091797
1182.679688	7768.12793
1180.96875	7865.74707
1179.257813	8056.818848
1177.544922	8293.081055
1175.833984	8450.383789
1174.121094	8555.058594
1172.408203	8550.21582
1170.695313	8773.018555
1168.982422	8620.777344
1167.267578	8421.927734
1165.552734	8259.624023
1163.837891	8151.335449
1162.123047	7846.317871
1160.408203	7723.59668
1158.691406	7621.327637
1156.976563	7621.067871
1155.259766	7419.837891
1153.541016	7438.549805
1151.824219	7333.522461
1150.107422	7167.418945
1148.388672	7117.788086
1146.669922	7228.190918
1144.951172	7134.9375
1143.230469	7179.855469
1141.511719	7064.848633
1139.791016	7180.974121
1138.070313	7103.795898
1136.349609	7049.894531
1134.628906	6964.064941
1132.90625	7114.95459
1131.185547	7228.030762
1129.462891	7510.866211
1127.740234	7771.807129
1126.015625	7786.006836
1124.292969	7556.53418
1122.568359	7077.753418
1120.84375	6741.263184
1119.119141	6478.84375
1117.394531	6306.385254
1115.667969	6057.220703
1113.941406	6019.637695
1112.214844	5998.000488
1110.488281	5909.774902
1108.761719	5860.669434
1107.033203	5771.066895
1105.306641	5735.035156
1103.578125	5714.930176
1101.849609	5651.449707
1100.119141	5473.779785
1098.390625	5586.729004
1096.660156	5689.510254
1094.929688	5520.619629
1093.199219	5515.032227
1091.46875	5525.332031
1089.736328	5532.73877
1088.003906	5543.028809
1086.273438	5312.304688
1084.539063	5513.09375
1082.806641	5579.637695
1081.074219	5552.408691
1079.339844	5484.819336
1077.605469	5539.790039
1075.871094	5436.203125
1074.134766	5499.804199
1072.400391	5492.789063
1070.664063	5518.901367
1068.927734	5424.050781
1067.191406	5471.758789
1065.455078	5410.063477
1063.716797	5519.625
1061.978516	5400.402344
1060.240234	5246.716309
1058.501953	5261.335449
1056.763672	5228.507324
1055.023438	5258.933105
1053.283203	5137.029785
1051.542969	5137.29248
1049.802734	5055.687012
1048.0625	5041.60791
1046.320313	5043.32666
1044.578125	5027.820313
1042.835938	4985.056641
1041.09375	5019.781738
1039.351563	4977.038574
1037.607422	4914.238281
1035.863281	4993.397461
1034.119141	4985.087402
1032.375	5034.100098
1030.628906	5038.677734
1028.884766	5021.767578
1027.138672	5049.256348
1025.392578	4972.220215
1023.646484	4969.648438
1021.898438	5032.904785
1020.152344	4975.953125
1018.404297	5001.988281
1016.65625	4927.908203
1014.90625	4955.371094
1013.158203	5001.40332
1011.408203	5021.69043
1009.658203	4929.098145
1007.908203	4883.685547
1006.158203	4951.110352
1004.40625	4909.995605
1002.65625	4983.092285
1000.904297	5013.341797
999.150391	4986.507324
997.398438	5023.873535
995.646484	4928.594727
993.892578	4846.191406
992.138672	4887.839355
990.384766	4869.612305
988.628906	4861.366699
986.875	4883.038086
985.119141	4780.799805
983.363281	4873.668945
981.607422	4750.126465
979.849609	4821.611816
978.09375	4834.728027
976.335938	4839.302734
974.578125	4838.186035
972.820313	4810.054688
971.060547	4811.787598
969.300781	4900.210449
967.542969	4934.600098
965.78125	5069.830078
964.021484	5034.574219
962.261719	5056.128906
960.5	5123.097656
958.738281	5121.913574
956.976563	5332.14209
955.214844	5265.655273
953.451172	5375.058594
951.6875	5481.574707
949.923828	5510.075195
948.160156	5270.704102
946.396484	5151.880371
944.630859	5147.854004
942.865234	4971.046387
941.099609	4967.062988
939.333984	4926.275391
937.568359	4903.904785
935.800781	4940.971191
934.033203	4922.850098
932.265625	4843.922852
930.498047	4938.948242
928.730469	4872.775879
926.960938	4897.084473
925.191406	4854.97168
923.421875	4828.416992
921.652344	4825.883301
919.880859	4765.458984
918.109375	4736.119141
916.337891	4702.558105
914.566406	4667.601074
912.794922	4687.67627
911.021484	4586.45166
909.248047	4660.116699
907.474609	4580.089844
905.701172	4581.843262
903.927734	4551.1875
902.152344	4637.468262
900.376953	4670.189941
898.601563	4650.797852
896.826172	4630.006836
895.050781	4578.262207
893.273438	4605.336914
891.496094	4616.924805
889.71875	4613.036133
887.939453	4621.803223
886.162109	4513.888184
884.382813	4483.321777
882.603516	4473.845703
880.824219	4503.707031
879.044922	4387.491699
877.263672	4265.713379
875.482422	4285.774902
873.701172	4368.981934
871.919922	4330.077148
870.138672	4394.998047
868.355469	4358.90918
866.572266	4419.585449
864.789063	4359.67627
863.005859	4416.118652
861.220703	4364.644043
859.435547	4271.167969
857.650391	4270.169434
855.865234	4234.166016
854.080078	4210.777832
852.292969	4278.369629
850.505859	4306.751465
848.71875	4361.698242
846.931641	4234.808105
845.144531	4323.302246
843.355469	4256.588867
841.566406	4427.492676
839.777344	4363.57959
837.988281	4464.531738
836.197266	4469.071289
834.408203	4595.083496
832.617188	4472.560059
830.824219	4560.82959
829.033203	4476.043457
827.240234	4415.010742
825.449219	4462.786621
823.65625	4520.299805
821.861328	4569.421387
820.068359	4644.999023
818.273438	4560.30957
816.478516	4587.098633
814.683594	4573.487305
812.888672	4644.813965
811.091797	4560.202148
809.296875	4394.913086
807.5	4406.401855
805.701172	4299.648438
803.904297	4295.855957
802.105469	4182.226074
800.308594	4131.201172
798.509766	4127.449707
796.708984	4069.513672
794.910156	4068.556152
793.109375	3995.384277
791.308594	4113.84668
789.507813	4093.445068
787.707031	4104.970703
785.904297	4108.166504
784.101563	4043.39209
782.298828	3968.940674
780.496094	4060.897217
778.693359	3982.317383
776.888672	4036.810547
775.083984	4058.026123
773.279297	4084.772217
771.474609	4050.573242
769.667969	4013.621338
767.861328	3976.686279
766.054688	4039.404297
764.248047	3913.935547
762.441406	4037.498047
760.632813	4061.436279
758.824219	4158.636719
757.015625	4199.120605
755.207031	4236.821289
753.398438	4420.947754
751.587891	4546.975586
749.777344	4610.803223
747.966797	4834.746094
746.154297	5073.765137
744.34375	5206.41748
742.53125	5381.773926
740.71875	5758.419434
738.90625	6378.95752
737.091797	7117.762207
735.277344	7762.493652
733.464844	8387.62793
731.648438	8349.824219
729.833984	7952.561523
728.019531	7355.824219
726.203125	6468.894531
724.386719	5759.930664
722.568359	5220.549805
720.751953	4889.151367
718.933594	4744.957031
717.115234	4555.45459
715.296875	4397.659668
713.478516	4355.38623
711.658203	4230.689941
709.839844	4378.048828
708.019531	4253.405273
706.197266	4279.858398
704.376953	4351.598633
702.554688	4228.421387
700.734375	4227.418457
698.910156	4222.300293
697.087891	4225.413086
695.265625	4150.370117
693.441406	4200.104492
691.617188	4219.664551
689.792969	4284.429199
687.966797	4262.864746
686.140625	4265.961426
684.316406	4274.532227
682.490234	4095.567871
680.662109	4116.491211
678.835938	4125.09082
677.007813	4143.260742
675.179688	4076.634277
673.351563	4061.993164
671.521484	4182.680664
669.693359	4151.62207
667.863281	4109.647949
666.033203	4133.257324
664.201172	4058.532471
662.371094	4080.776855
660.539063	4077.076416
658.707031	4164.806641
656.875	4174.72998
655.041016	4214.655762
653.208984	4321.380371
651.375	4301.265137
649.541016	4301.604492
647.705078	4357.8125
645.871094	4324.079102
644.035156	4367.996094
642.199219	4396.913086
640.363281	4440.791016
638.525391	4385.291504
636.689453	4320.292969
634.851563	4249.883789
633.013672	4333.195801
631.173828	4254.657227
629.335938	4199.266602
627.496094	4334.175781
625.65625	4232.593262
623.816406	4357.92041
621.974609	4441.085449
620.132813	4418.301758
618.292969	4305.93457
616.449219	4199.049316
614.607422	4130.206055
612.763672	4117.012207
610.921875	4206.89502
609.078125	4157.080078
607.232422	4133.043945
605.388672	4172.714355
603.542969	4102.619141
601.697266	4069.130371
599.851563	4008.572266
598.005859	3916.902588
596.158203	4005.305176
594.310547	3901.499756
592.462891	3919.509766
590.615234	3867.173828
588.765625	3848.670166
586.916016	3980.245605
585.066406	3871.162109
583.216797	3798.616455
581.367188	3784.19873
579.515625	3661.732178
577.664063	3633.850098
575.8125	3699.134033
573.960938	3727.944092
572.107422	3736.499023
570.253906	3705.92627
568.400391	3668.624023
566.546875	3845.740723
564.693359	3813.814941
562.837891	3744.165771
560.982422	3666.464844
559.126953	3842.064453
557.269531	3752.255371
555.414063	3756.744141
553.556641	3665.651611
551.699219	3664.774902
549.841797	3616.804443
547.982422	3525.810059
546.123047	3480.584961
544.263672	3464.962158
542.404297	3582.427246
540.544922	3570.818604
538.683594	3478.599121
536.822266	3565.080322
534.960938	3433.959717
533.099609	3512.35376
531.236328	3408.154297
529.373047	3466.386719
527.509766	3387.739746
525.646484	3503.626953
523.783203	3724.059326
521.917969	4074.435303
520.052734	4408.558594
518.1875	4142.168457
516.320313	3615.993652
514.455078	3483.863525
512.587891	3465.62085
510.720703	3375.092041
508.853516	3375.622314
506.984375	3414.958496
505.115234	3392.735352
503.246094	3450.773193
501.376953	3503.434326
499.507813	3380.940186
497.636719	3412.20752
495.765625	3410.053955
493.894531	3369.159912
492.021484	3361.674805
490.150391	3422.291748
488.277344	3320.015869
486.404297	3425.990723
484.53125	3325.096924
482.65625	3376.325684
480.78125	3328.838379
478.90625	3346.707764
477.03125	3383.230713
475.15625	3298.459229
473.279297	3310.992676
471.402344	3323.52002
469.525391	3309.40625
467.648438	3361.870605
465.769531	3395.673828
463.890625	3300.373535
462.011719	3302.243652
460.132813	3305.442627
458.251953	3343.21582
456.371094	3301.199463
454.490234	3360.222412
452.609375	3282.341797
450.728516	3272.255127
448.845703	3266.157959
446.962891	3303.88501
445.080078	3232.72998
443.197266	3247.882568
441.3125	3318.760742
439.427734	3259.592529
437.542969	3250.853271
435.658203	3297.810791
433.771484	3221.455322
431.886719	3239.238525
430	3247.737549
428.111328	3146.27832
426.224609	3218.36792
424.335938	3253.347656
422.447266	3228.739502
420.558594	3288.845703
418.669922	3213.960449
416.779297	3223.772949
414.888672	3158.196289
412.998047	3263.216309
411.107422	3214.846191
409.214844	3314.515625
407.324219	3254.264404
405.431641	3234.991455
403.537109	3243.460449
401.644531	3291.534668
399.75	3162.706543
