#Wave		#Intensity
1585.210938	17613.398438
1584.209961	17620.890625
1583.208984	17667.183594
1582.208008	17895.707031
1581.206055	17729.753906
1580.204102	17596.310547
1579.202148	17635.082031
1578.200195	17811.035156
1577.198242	17829.792969
1576.195313	17584.228516
1575.192383	17927.113281
1574.189453	17783.820313
1573.186523	17595.732422
1572.182617	17539.767578
1571.178711	17516.207031
1570.174805	17567.369141
1569.170898	17713.123047
1568.166992	17664.646484
1567.162109	17675.921875
1566.158203	17600.099609
1565.153320	17402.402344
1564.147461	17475.906250
1563.142578	17748.322266
1562.136719	17856.529297
1561.130859	17982.093750
1560.125000	18204.527344
1559.119141	18670.375000
1558.113281	18716.193359
1557.106445	18943.304688
1556.099609	19373.941406
1555.092773	19436.962891
1554.084961	19686.121094
1553.078125	19736.640625
1552.070313	19936.007813
1551.062500	19892.191406
1550.054688	20158.404297
1549.045898	19844.281250
1548.038086	19738.529297
1547.029297	19719.570313
1546.020508	19343.779297
1545.011719	18992.916016
1544.001953	19127.699219
1542.992188	18898.375000
1541.982422	18473.539063
1540.972656	18427.630859
1539.962891	18292.640625
1538.952148	17907.785156
1537.942383	17869.441406
1536.931641	17925.105469
1535.919922	17582.601563
1534.909180	17492.425781
1533.897461	17375.095703
1532.886719	17591.453125
1531.874023	17249.298828
1530.862305	17344.542969
1529.850586	17308.843750
1528.837891	17381.808594
1527.825195	17326.365234
1526.812500	17246.257813
1525.799805	17296.980469
1524.786133	17248.986328
1523.772461	17260.216797
1522.758789	17133.328125
1521.745117	17127.314453
1520.731445	17217.447266
1519.716797	17312.472656
1518.702148	17247.281250
1517.687500	17095.884766
1516.672852	17082.492188
1515.657227	17142.984375
1514.642578	17250.234375
1513.626953	17352.515625
1512.610352	17184.021484
1511.594727	17278.890625
1510.579102	17258.089844
1509.562500	17244.677734
1508.545898	17196.839844
1507.529297	17026.089844
1506.511719	17096.308594
1505.494141	17412.257813
1504.477539	17467.621094
1503.458984	17326.433594
1502.441406	17396.527344
1501.423828	17422.390625
1500.405273	17634.828125
1499.386719	17685.173828
1498.368164	17755.132813
1497.348633	17854.503906
1496.330078	17909.675781
1495.310547	17986.900391
1494.291016	17983.171875
1493.271484	17815.193359
1492.250977	18149.742188
1491.231445	18072.464844
1490.210938	17936.419922
1489.190430	17893.511719
1488.168945	17926.537109
1487.148438	17780.810547
1486.126953	17728.166016
1485.105469	18010.843750
1484.083984	17987.535156
1483.061523	17832.126953
1482.040039	18251.576172
1481.017578	18162.203125
1479.995117	18464.052734
1478.971680	18230.449219
1477.949219	18639.689453
1476.925781	18569.853516
1475.902344	18866.478516
1474.878906	19114.132813
1473.855469	19513.078125
1472.831055	19384.521484
1471.806641	19575.769531
1470.782227	20028.058594
1469.757813	20409.400391
1468.733398	20734.480469
1467.708008	21174.048828
1466.682617	21879.210938
1465.657227	22313.482422
1464.631836	22998.615234
1463.605469	23927.146484
1462.579102	24723.728516
1461.552734	25376.267578
1460.526367	25655.931641
1459.500000	25862.433594
1458.472656	25759.695313
1457.445313	25576.681641
1456.417969	24982.517578
1455.390625	24349.673828
1454.362305	23870.326172
1453.334961	23240.406250
1452.306641	22479.457031
1451.277344	21750.423828
1450.249023	21352.207031
1449.219727	20810.796875
1448.191406	20429.943359
1447.162109	19796.656250
1446.131836	19763.404297
1445.102539	19616.062500
1444.072266	19289.167969
1443.041992	19304.574219
1442.011719	19256.890625
1440.981445	19124.326172
1439.950195	18783.248047
1438.918945	18985.445313
1437.887695	18552.416016
1436.856445	18803.046875
1435.825195	18581.050781
1434.792969	18460.900391
1433.760742	18306.886719
1432.728516	18189.261719
1431.696289	18195.164063
1430.663086	18026.775391
1429.629883	17911.697266
1428.596680	17905.552734
1427.563477	17727.648438
1426.530273	17745.728516
1425.496094	17589.693359
1424.461914	17528.009766
1423.427734	17577.541016
1422.393555	17332.218750
1421.358398	17374.519531
1420.323242	17329.837891
1419.288086	17285.173828
1418.252930	17206.720703
1417.217773	17147.615234
1416.181641	17218.867188
1415.145508	17256.306641
1414.109375	17370.931641
1413.073242	17799.085938
1412.036133	17648.269531
1411.000000	18138.873047
1409.962891	18248.394531
1408.924805	18473.554688
1407.887695	18980.544922
1406.849609	19224.728516
1405.812500	19899.951172
1404.773438	20562.851563
1403.735352	21148.429688
1402.697266	21818.011719
1401.658203	22049.312500
1400.619141	22477.814453
1399.580078	22523.646484
1398.540039	22995.158203
1397.500977	22725.857422
1396.460938	22435.031250
1395.420898	22437.562500
1394.380859	21983.503906
1393.339844	22034.177734
1392.298828	21712.505859
1391.257813	21931.324219
1390.216797	21484.947266
1389.175781	21722.921875
1388.133789	21523.982422
1387.091797	21471.498047
1386.049805	21932.437500
1385.007813	22544.294922
1383.964844	22863.330078
1382.922852	23577.830078
1381.879883	24438.253906
1380.835938	24931.638672
1379.792969	25961.537109
1378.749023	26176.507813
1377.706055	26626.103516
1376.661133	27305.390625
1375.617188	27242.226563
1374.573242	27483.072266
1373.528320	27719.027344
1372.483398	27129.445313
1371.438477	26781.705078
1370.392578	26517.816406
1369.347656	25744.734375
1368.301758	25595.916016
1367.255859	24945.242188
1366.208984	24603.093750
1365.163086	23998.287109
1364.116211	23596.763672
1363.069336	23083.164063
1362.022461	22980.443359
1360.974609	22364.541016
1359.927734	22455.324219
1358.879883	22166.679688
1357.832031	21737.404297
1356.783203	22100.156250
1355.735352	21833.222656
1354.686523	21950.238281
1353.637695	22379.453125
1352.588867	22586.859375
1351.539063	23213.511719
1350.490234	23661.244141
1349.440430	24535.089844
1348.390625	25318.085938
1347.339844	25953.158203
1346.290039	26680.783203
1345.239258	27667.478516
1344.188477	28608.554688
1343.137695	29646.755859
1342.085938	30418.173828
1341.034180	30970.527344
1339.982422	31841.177734
1338.930664	32257.529297
1337.878906	32775.878906
1336.826172	33462.675781
1335.773438	33403.398438
1334.720703	33175.546875
1333.667969	32869.445313
1332.614258	32781.839844
1331.561523	32013.189453
1330.507813	31396.705078
1329.453125	31055.642578
1328.399414	30188.224609
1327.344727	29264.261719
1326.290039	28895.406250
1325.235352	28090.605469
1324.180664	28077.591797
1323.125000	27614.449219
1322.070313	27177.554688
1321.014648	26454.296875
1319.958008	26107.796875
1318.902344	25943.707031
1317.845703	25571.421875
1316.789063	25161.433594
1315.732422	24510.320313
1314.675781	24138.566406
1313.618164	23662.923828
1312.560547	23341.146484
1311.502930	22716.958984
1310.445313	22549.119141
1309.386719	21897.003906
1308.329102	21552.242188
1307.270508	21389.472656
1306.210938	21129.960938
1305.152344	20521.181641
1304.092773	20155.751953
1303.033203	20024.082031
1301.973633	19986.832031
1300.914063	19447.201172
1299.853516	19431.310547
1298.792969	19012.261719
1297.732422	18878.607422
1296.671875	18912.332031
1295.611328	18837.656250
1294.549805	18558.066406
1293.488281	18657.777344
1292.426758	18524.332031
1291.364258	18765.257813
1290.302734	18638.902344
1289.240234	18538.486328
1288.177734	18407.525391
1287.114258	18857.611328
1286.051758	18867.738281
1284.988281	19033.039063
1283.924805	19231.177734
1282.861328	19389.279297
1281.796875	19695.341797
1280.732422	19888.513672
1279.667969	20203.734375
1278.603516	20685.544922
1277.539063	21192.976563
1276.473633	21561.703125
1275.408203	22207.187500
1274.342773	22559.117188
1273.277344	22713.853516
1272.210938	22781.748047
1271.145508	22760.513672
1270.079102	22427.498047
1269.011719	22157.904297
1267.945313	21794.691406
1266.877930	21722.134766
1265.810547	20968.005859
1264.743164	20542.042969
1263.674805	20046.021484
1262.607422	19487.007813
1261.539063	19230.125000
1260.470703	18839.982422
1259.401367	18625.451172
1258.333008	18139.708984
1257.263672	18037.652344
1256.194336	17849.138672
1255.125000	17838.339844
1254.054688	17385.886719
1252.985352	17307.433594
1251.915039	17259.378906
1250.843750	17393.498047
1249.773438	16883.146484
1248.702148	17042.964844
1247.630859	17041.677734
1246.559570	16870.056641
1245.488281	16964.451172
1244.416016	16785.919922
1243.343750	16854.640625
1242.271484	16711.175781
1241.199219	16667.998047
1240.125977	16776.310547
1239.053711	16886.906250
1237.980469	16573.505859
1236.906250	16707.384766
1235.833008	16908.726563
1234.758789	16937.718750
1233.684570	16861.962891
1232.610352	16662.914063
1231.536133	17050.201172
1230.460938	16972.140625
1229.385742	16796.445313
1228.310547	16955.611328
1227.235352	16877.617188
1226.159180	16841.486328
1225.083008	16835.572266
1224.006836	16801.785156
1222.930664	16751.753906
1221.853516	16803.908203
1220.777344	16802.646484
1219.700195	16838.517578
1218.622070	17050.726563
1217.544922	16750.132813
1216.466797	16906.601563
1215.388672	17009.666016
1214.310547	16999.078125
1213.232422	16907.365234
1212.153320	17008.041016
1211.074219	17083.185547
1209.995117	17269.488281
1208.916016	17270.431641
1207.835938	17285.263672
1206.755859	17114.888672
1205.675781	17321.851563
1204.595703	17463.929688
1203.514648	17531.914063
1202.434570	17414.826172
1201.353516	17496.664063
1200.271484	17159.986328
1199.190430	17315.810547
1198.108398	17007.044922
1197.026367	16971.056641
1195.944336	16981.283203
1194.862305	16982.265625
1193.779297	16593.013672
1192.696289	16314.737305
1191.613281	16392.025391
1190.530273	16079.293945
1189.446289	16225.809570
1188.362305	15869.420898
1187.278320	15667.693359
1186.194336	15793.447266
1185.109375	15566.462891
1184.024414	15475.547852
1182.939453	15363.933594
1181.854492	15482.729492
1180.768555	15205.332031
1179.683594	15183.647461
1178.597656	15286.286133
1177.510742	15066.647461
1176.424805	15141.651367
1175.337891	14924.435547
1174.250977	14928.129883
1173.164063	14842.133789
1172.077148	15222.907227
1170.989258	15063.323242
1169.901367	15014.121094
1168.813477	14822.480469
1167.724609	14973.205078
1166.636719	14756.389648
1165.547852	15051.723633
1164.458984	14979.612305
1163.369141	14914.416992
1162.280273	14904.322266
1161.190430	15201.658203
1160.100586	14753.397461
1159.010742	15016.237305
1157.919922	14996.953125
1156.829102	14805.755859
1155.738281	14919.445313
1154.647461	15001.006836
1153.555664	15137.510742
1152.464844	15287.696289
1151.373047	15229.444336
1150.280273	15477.982422
1149.188477	15561.618164
1148.095703	15670.387695
1147.002930	15602.946289
1145.910156	15919.804688
1144.817383	15673.962891
1143.723633	15736.882813
1142.629883	15904.921875
1141.536133	15791.790039
1140.441406	15649.000977
1139.347656	15611.354492
1138.252930	15491.502930
1137.158203	15380.834961
1136.062500	15404.904297
1134.967773	15465.480469
1133.872070	15341.194336
1132.776367	15153.082031
1131.679688	15220.511719
1130.583984	15066.710938
1129.487305	15309.681641
1128.390625	15253.940430
1127.292969	15079.716797
1126.196289	15399.990234
1125.098633	15093.687500
1124.000977	15085.862305
1122.903320	15116.748047
1121.804688	15004.202148
1120.706055	15178.475586
1119.607422	14984.043945
1118.508789	15071.794922
1117.409180	14900.213867
1116.310547	15069.805664
1115.210938	15014.245117
1114.110352	15035.990234
1113.010742	14919.100586
1111.910156	15065.816406
1110.809570	15212.466797
1109.708984	14954.806641
1108.607422	14763.102539
1107.506836	15066.353516
1106.405273	14674.984375
1105.303711	14635.490234
1104.201172	14661.800781
1103.098633	14626.860352
1101.996094	14605.539063
1100.893555	14330.311523
1099.791016	14528.921875
1098.687500	14494.036133
1097.583984	14470.491211
1096.480469	14270.276367
1095.376953	14283.022461
1094.272461	14241.422852
1093.167969	14423.940430
1092.063477	14330.272461
1090.958008	14066.945313
1089.853516	14131.745117
1088.748047	14133.189453
1087.642578	14005.744141
1086.536133	14149.635742
1085.430664	14108.126953
1084.324219	14215.775391
1083.217773	14289.488281
1082.110352	14157.624023
1081.003906	14348.742188
1079.896484	14307.229492
1078.789063	14195.758789
1077.680664	14093.363281
1076.573242	13972.960938
1075.464844	14024.046875
1074.356445	14251.020508
1073.247070	14112.621094
1072.138672	14334.964844
1071.029297	14192.096680
1069.919922	14225.046875
1068.809570	14294.026367
1067.700195	14139.996094
1066.589844	14314.796875
1065.479492	14262.136719
1064.368164	13968.658203
1063.257813	14060.116211
1062.146484	14302.271484
1061.035156	14206.916992
1059.922852	14077.870117
1058.811523	14196.198242
1057.699219	14294.243164
1056.586914	14140.537109
1055.473633	14058.796875
1054.361328	14055.715820
1053.248047	14191.880859
1052.134766	14260.623047
1051.021484	14192.392578
1049.907227	14189.280273
1048.792969	14332.023438
1047.678711	14266.062500
1046.564453	14368.349609
1045.449219	14201.497070
1044.333984	14350.833008
1043.218750	14193.019531
1042.103516	14499.158203
1040.987305	14390.670898
1039.871094	14293.429688
1038.754883	14509.759766
1037.638672	14419.250000
1036.521484	14521.291016
1035.404297	14558.382813
1034.287109	14669.295898
1033.169922	14538.557617
1032.051758	14660.606445
1030.933594	14664.088867
1029.815430	14955.957031
1028.697266	14907.963867
1027.578125	14795.187500
1026.458984	15149.384766
1025.339844	14875.782227
1024.220703	15037.755859
1023.100586	15059.001953
1021.980469	15140.503906
1020.860352	15302.308594
1019.740234	15243.157227
1018.619141	15297.792969
1017.498047	15260.967773
1016.376953	15188.482422
1015.255859	15356.778320
1014.133789	15233.041016
1013.011719	15332.176758
1011.889648	15244.139648
1010.767578	15305.363281
1009.644531	15208.461914
1008.521484	15169.484375
1007.398438	14867.885742
1006.274414	15013.692383
1005.151367	14936.958008
1004.027344	14944.778320
1002.902344	14948.146484
1001.778320	14915.939453
1000.653320	14603.674805
999.528320	14891.564453
998.403320	14699.417969
997.278320	14649.518555
996.152344	14533.015625
995.026367	14565.324219
993.900391	14642.013672
992.773438	14518.927734
991.646484	14546.776367
990.519531	14448.166016
989.392578	14790.952148
988.265625	14621.372070
987.137695	14349.888672
986.009766	14719.062500
984.881836	14815.514648
983.752930	14796.722656
982.624023	14897.541992
981.495117	14954.027344
980.366211	14817.874023
979.236328	14827.867188
978.106445	14742.697266
976.976563	14597.827148
975.846680	14660.945313
974.715820	14571.442383
973.585938	14572.627930
972.454102	14613.601563
971.323242	14579.415039
970.191406	14543.032227
969.060547	14659.087891
967.927734	14543.194336
966.795898	14544.376953
965.663086	14839.162109
964.530273	14811.583984
963.397461	14731.059570
962.264648	15056.488281
961.130859	15101.661133
959.997070	15340.860352
958.863281	15297.762695
957.729492	15027.659180
956.594727	15149.918945
955.459961	15212.638672
954.325195	15151.981445
953.189453	14968.029297
952.053711	14799.569336
950.917969	14670.803711
949.782227	14511.285156
948.646484	14437.643555
947.509766	14245.250000
946.373047	14103.523438
945.235352	14366.421875
944.098633	14211.539063
942.960938	14340.231445
941.823242	14440.301758
940.685547	14325.043945
939.546875	14170.302734
938.408203	14643.622070
937.269531	14646.937500
936.129883	14817.053711
934.991211	14686.473633
933.851563	14608.602539
932.711914	14822.475586
931.571289	14994.588867
930.431641	14929.851563
929.291016	15022.954102
928.149414	15091.909180
927.008789	14952.699219
925.867188	15004.113281
924.725586	14845.273438
923.583984	15032.428711
922.441406	14759.827148
921.299805	14739.015625
920.157227	14370.330078
919.013672	14308.050781
917.871094	14108.020508
916.727539	13988.977539
915.583984	13924.634766
914.439453	13838.465820
913.295898	13848.473633
912.151367	13727.406250
911.006836	13630.415039
909.861328	13745.268555
908.716797	13757.466797
907.571289	13597.237305
906.424805	13522.178711
905.279297	13643.492188
904.132813	13631.706055
902.986328	13742.036133
901.839844	13782.551758
900.692383	13422.001953
899.545898	13527.942383
898.398438	13716.622070
897.250000	13776.706055
896.102539	13756.189453
894.954102	13661.656250
893.805664	13715.178711
892.656250	13777.379883
891.507813	13689.430664
890.358398	13675.475586
889.208984	13607.157227
888.058594	13499.733398
886.908203	13492.348633
885.758789	13415.420898
884.607422	13612.294922
883.457031	13348.558594
882.305664	13388.988281
881.154297	13388.143555
880.002930	13469.789063
878.850586	13299.640625
877.698242	13285.794922
876.545898	13304.494141
875.393555	13121.481445
874.240234	13252.961914
873.086914	12909.619141
871.933594	12846.021484
870.780273	13161.656250
869.625977	13093.695313
868.471680	13196.870117
867.317383	12977.350586
866.162109	13026.379883
865.007813	13019.110352
863.852539	13052.958984
862.696289	13101.934570
861.541016	13161.702148
860.384766	13022.492188
859.228516	12937.394531
858.072266	12964.732422
856.915039	13093.625000
855.757813	12973.997070
854.600586	13066.106445
853.442383	13004.843750
852.285156	13207.014648
851.126953	13070.196289
849.968750	13203.199219
848.809570	12887.360352
847.650391	12828.359375
846.491211	12995.829102
845.332031	13122.256836
844.171875	13005.036133
843.012695	12769.334961
841.851563	12928.043945
840.691406	13073.754883
839.530273	12864.038086
838.369141	13063.525391
837.208008	12935.708008
836.046875	12816.555664
834.884766	13084.771484
833.722656	13189.368164
832.560547	12629.328125
831.397461	12921.052734
830.234375	12885.875977
829.071289	12889.401367
827.908203	12892.923828
826.744141	13018.898438
825.580078	12970.838867
824.416016	12931.390625
823.251953	12928.455078
822.086914	13084.352539
820.921875	12911.855469
819.756836	13155.645508
818.590820	13015.382813
817.425781	13106.781250
816.259766	13135.962891
815.092773	13223.002930
813.926758	13035.702148
812.759766	12921.330078
811.592773	13085.468750
810.424805	13219.549805
809.257813	13004.583008
808.089844	12950.251953
806.920898	12842.444336
805.752930	12854.500000
804.583984	13168.158203
803.415039	12923.500977
802.246094	12941.941406
801.076172	12787.224609
799.906250	13070.688477
798.736328	12950.197266
797.566406	12857.530273
796.395508	12972.063477
795.224609	13043.839844
794.053711	13162.545898
792.881836	13498.886719
791.710938	13286.706055
790.538086	13505.534180
789.366211	13434.208008
788.194336	13542.023438
787.021484	13639.128906
785.848633	13704.220703
784.674805	13600.947266
783.500977	13608.496094
782.327148	13368.980469
781.153320	13012.458008
779.979492	13128.705078
778.804688	13308.749023
777.629883	13116.329102
776.454102	13149.500977
775.279297	13059.294922
774.103516	12973.381836
772.927734	13097.975586
771.750977	12920.696289
770.575195	13204.616211
769.398438	13008.271484
768.220703	13147.607422
767.043945	13274.137695
765.866211	13379.378906
764.688477	13255.334961
763.510742	13239.572266
762.332031	13319.286133
761.153320	13305.635742
759.974609	13599.477539
758.794922	13651.490234
757.616211	13741.631836
756.436523	13997.024414
755.255859	14222.638672
754.076172	14348.592773
752.895508	14565.549805
751.714844	14962.370117
750.533203	15200.251953
749.352539	15829.529297
748.170898	16371.771484
746.988281	17550.462891
745.806641	19111.388672
744.624023	20874.574219
743.441406	24029.958984
742.258789	27790.425781
741.075195	32757.720703
739.891602	38567.683594
738.708008	44168.019531
737.523438	49335.054688
736.339844	52899.640625
735.155273	54478.781250
733.969727	54236.300781
732.785156	52051.109375
731.599609	47253.886719
730.414063	42728.750000
729.227539	37488.957031
728.041992	32186.234375
726.855469	27834.113281
725.667969	24221.285156
724.481445	21288.273438
723.293945	19723.136719
722.106445	17760.851563
720.918945	16580.285156
719.730469	15892.629883
718.541992	15350.441406
717.353516	14886.318359
716.164063	14424.510742
714.975586	14061.717773
713.786133	13461.594727
712.595703	13546.753906
711.406250	13394.486328
710.215820	13378.805664
709.025391	13146.851563
707.833984	12896.110352
706.642578	12991.790039
705.451172	13039.163086
704.259766	12924.977539
703.068359	13014.290039
701.875977	12921.128906
700.683594	12794.467773
699.490234	12797.812500
698.297852	12773.913086
697.104492	12993.041016
695.910156	12916.743164
694.716797	13320.008789
693.522461	13277.165039
692.328125	13498.064453
691.132813	13618.417969
689.938477	13880.977539
688.743164	13821.307617
687.547852	13947.773438
686.351563	13904.838867
685.155273	13989.422852
683.958984	13626.775391
682.762695	13558.871094
681.565430	13612.141602
680.368164	13216.417969
679.170898	13278.091797
677.973633	13258.333984
676.775391	13040.337891
675.577148	12962.224609
674.378906	12978.008789
673.179688	12831.127930
671.980469	12999.127930
670.781250	12791.860352
669.581055	12757.651367
668.381836	13035.970703
667.181641	13043.378906
665.980469	13098.678711
664.780273	13006.130859
663.579102	13067.656250
662.377930	13160.368164
661.175781	13563.036133
659.973633	13697.189453
658.771484	13798.006836
657.569336	14204.404297
656.367188	14155.395508
655.164063	14434.753906
653.960938	14639.186523
652.756836	15186.258789
651.552734	15006.232422
650.348633	15218.693359
649.144531	15352.176758
647.939453	15392.210938
646.735352	15623.105469
645.529297	15140.332031
644.324219	15609.666016
643.118164	15705.579102
641.912109	15832.540039
640.706055	15961.513672
639.499023	15746.490234
638.292969	15769.779297
637.084961	16072.634766
635.877930	15921.915039
634.669922	15578.755859
633.461914	15842.121094
632.253906	16018.463867
631.044922	15956.839844
629.836914	15837.336914
628.626953	15790.254883
627.417969	15561.286133
626.208008	15297.290039
624.998047	15054.076172
623.788086	14755.200195
622.577148	14497.765625
621.366211	14104.176758
620.155273	14197.932617
618.944336	13839.677734
617.732422	13574.436523
616.520508	13509.410156
615.308594	13407.291016
614.095703	13362.950195
612.882813	13242.357422
611.669922	12831.231445
610.457031	12754.084961
609.243164	12666.673828
608.029297	12750.239258
606.815430	12522.855469
605.600586	12462.316406
604.385742	12562.333008
603.170898	12495.638672
601.955078	12550.342773
600.740234	12500.133789
599.524414	12505.462891
598.307617	12313.444336
597.091797	12639.422852
595.875000	12445.405273
594.658203	12376.786133
593.440430	12525.897461
592.222656	12539.420898
591.004883	12384.607422
589.787109	12461.778320
588.568359	12651.764648
587.349609	12517.543945
586.130859	12477.726563
584.912109	12610.162109
583.692383	12656.438477
582.472656	12712.939453
581.251953	12763.266602
580.032227	13088.072266
578.811523	13236.594727
577.589844	13329.761719
576.369141	13451.543945
575.147461	13296.974609
573.925781	13613.091797
572.703125	13591.523438
571.481445	13565.874023
570.258789	13654.741211
569.035156	13573.892578
567.812500	13744.465820
566.588867	13925.175781
565.365234	13930.117188
564.140625	13669.547852
562.916992	14033.916992
561.692383	13775.484375
560.466797	13955.973633
559.242188	13781.335938
558.016602	13778.138672
556.791016	13587.305664
555.564453	13506.668945
554.337891	13458.686523
553.111328	13343.467773
551.884766	13535.984375
550.657227	13359.684570
549.429688	13114.218750
548.202148	13272.036133
546.974609	13185.490234
545.746094	13357.463867
544.517578	13154.953125
543.288086	13320.749023
542.058594	13091.899414
540.829102	13206.796875
539.599609	13260.653320
538.370117	13196.601563
537.139648	13142.739258
535.909180	13180.318359
534.677734	13087.893555
533.446289	13123.436523
532.214844	12951.893555
530.983398	12896.116211
529.750977	12809.928711
528.519531	12890.129883
527.286133	12688.374023
526.053711	12768.564453
524.820313	12727.082031
523.586914	12754.529297
522.353516	12909.620117
521.119141	12937.010742
519.884766	12925.905273
518.650391	12872.281250
517.415039	12784.266602
516.179688	12734.747070
514.944336	12646.803711
513.708984	12589.246094
