#Wave		#Intensity
2109.224609	6296.654297
2107.712891	6455.435059
2106.201172	6373.012207
2104.687500	6365.020996
2103.175781	6361.992676
2101.662109	6307.736328
2100.150391	6473.244141
2098.636719	6275.278809
2097.123047	6297.044434
2095.607422	6282.476074
2094.093750	6439.592773
2092.578125	6368.886719
2091.064453	6446.714844
2089.548828	6333.145508
2088.033203	6295.495117
2086.517578	6348.554199
2085.000000	6203.756348
2083.484375	6401.859863
2081.966797	6263.704102
2080.449219	6308.486816
2078.931641	6186.883301
2077.414063	6318.946289
2075.894531	6274.777832
2074.376953	6298.119629
2072.857422	6186.497559
2071.337891	6369.455566
2069.818359	6234.834961
2068.298828	6231.850098
2066.777344	6281.486328
2065.257813	6419.877930
2063.736328	6260.707520
2062.214844	6275.796387
2060.693359	6225.160156
2059.171875	6374.943359
2057.648438	6309.527832
2056.126953	6306.532227
2054.603516	6254.291504
2053.080078	6418.710449
2051.556641	6499.376465
2050.033203	6358.541504
2048.507813	6271.891113
2046.984375	6332.859375
2045.458984	6334.781250
2043.933594	6435.047852
2042.408203	6264.879883
2040.882813	6401.163086
2039.355469	6149.173828
2037.830078	6318.176270
2036.302734	6437.986816
2034.775391	6231.986816
2033.248047	6317.395508
2031.718750	6265.319824
2030.191406	6298.334473
2028.662109	6300.259277
2027.134766	6346.334473
2025.605469	6294.296875
2024.076172	6395.927246
2022.544922	6321.022949
2021.015625	6211.839844
2019.484375	6339.558594
2017.955078	6272.879395
2016.423828	6191.533691
2014.892578	6366.516113
2013.359375	6255.807129
2011.828125	6370.326172
2010.294922	6253.138184
2008.761719	6328.463867
2007.230469	6283.085449
2005.695313	6195.336914
2004.162109	6366.796875
2002.628906	6368.698730
2001.093750	6287.505371
1999.558594	6291.052734
1998.023438	6330.427734
1996.488281	6233.011719
1994.953125	6189.357910
1993.417969	6298.715332
1991.880859	6364.090332
1990.343750	6367.616211
1988.806641	6384.152832
1987.269531	6288.475098
1985.732422	6259.497559
1984.193359	6277.671875
1982.656250	6419.350098
1981.117188	6273.376953
1979.578125	6288.287109
1978.039063	6342.169922
1976.500000	6285.613770
1974.958984	6347.590820
1973.417969	6339.749512
1971.878906	6184.242188
1970.337891	6356.523926
1968.796875	6356.795410
1967.253906	6269.495117
1965.712891	6253.570801
1964.169922	6286.284180
1962.626953	6346.534668
1961.083984	6319.261719
1959.541016	6168.882324
1957.998047	6264.750488
1956.455078	6365.436523
1954.910156	6287.995117
1953.365234	6285.041992
1951.820313	6296.654297
1950.275391	6272.667969
1948.730469	6363.539063
1947.183594	6211.786621
1945.638672	6341.437012
1944.091797	6175.204590
1942.544922	6248.240723
1940.998047	6127.342285
1939.449219	6203.588379
1937.902344	6258.804199
1936.353516	6296.233887
1934.804688	6304.586426
1933.255859	6258.054199
1931.707031	6230.907227
1930.158203	6216.679199
1928.607422	6205.683594
1927.058594	6355.970703
1925.507813	6199.830078
1923.957031	6130.808594
1922.406250	6308.415527
1920.853516	6255.514160
1919.302734	6210.690918
1917.750000	6231.926270
1916.197266	6327.230469
1914.644531	6332.331055
1913.091797	6282.699707
1911.539063	6205.729492
1909.984375	6273.604492
1908.431641	6225.624512
1906.876953	6240.390625
1905.322266	6346.807129
1903.767578	6302.057129
1902.210938	6231.608887
1900.656250	6191.722656
1899.099609	6400.883789
1897.542969	6264.600098
1895.986328	6165.311035
1894.429688	6359.894043
1892.873047	6225.310059
1891.314453	6158.190918
1889.755859	6200.212891
1888.199219	6250.238770
1886.640625	6195.987793
1885.080078	6157.794922
1883.521484	6241.465820
1881.960938	6206.485352
1880.402344	6125.044434
1878.841797	6287.178223
1877.281250	6316.285156
1875.720703	6318.153320
1874.158203	6188.720215
1872.597656	6216.228516
1871.035156	6178.102539
1869.472656	6325.616211
1867.910156	6213.888672
1866.347656	6230.170410
1864.783203	6182.477539
1863.220703	6114.019531
1861.656250	6170.274414
1860.091797	6140.203613
1858.527344	6182.048340
1856.962891	6262.214844
1855.396484	6243.323242
1853.832031	6178.131348
1852.265625	6280.598145
1850.699219	6212.232910
1849.132813	6238.049805
1847.566406	6281.405762
1845.998047	6217.868652
1844.431641	6270.778809
1842.863281	6342.799805
1841.294922	6169.293945
1839.726563	6211.023438
1838.156250	6161.908203
1836.587891	6217.959473
1835.017578	6132.228516
1833.449219	6294.956055
1831.878906	6268.152832
1830.306641	6254.094727
1828.736328	6257.548340
1827.166016	6273.729492
1825.593750	6302.628906
1824.021484	6342.649414
1822.449219	6293.607422
1820.876953	6281.149902
1819.304688	6260.750488
1817.730469	6281.675781
1816.158203	6266.050293
1814.583984	6201.190430
1813.009766	6328.516113
1811.435547	6241.440918
1809.859375	6235.360840
1808.285156	6280.069336
1806.708984	6240.661621
1805.132813	6332.941895
1803.556641	6341.120605
1801.980469	6247.809082
1800.404297	6205.269043
1798.826172	6273.701660
1797.248047	6331.011719
1795.671875	6264.714355
1794.093750	6277.647949
1792.513672	6254.149902
1790.935547	6419.085938
1789.355469	6397.150391
1787.777344	6166.303711
1786.197266	6221.967285
1784.617188	6320.322754
1783.035156	6461.343262
1781.455078	6396.722656
1779.873047	6338.453613
1778.292969	6507.832520
1776.710938	6282.042969
1775.128906	6380.259277
1773.544922	6457.897461
1771.962891	6371.246094
1770.378906	6409.376465
1768.794922	6493.272949
1767.212891	6359.316895
1765.626953	6375.331543
1764.042969	6492.313477
1762.458984	6427.846191
1760.873047	6481.684570
1759.287109	6494.505371
1757.701172	6488.403809
1756.115234	6632.029297
1754.529297	6534.508789
1752.941406	6501.619629
1751.355469	6471.894531
1749.767578	6599.653320
1748.179688	6580.939941
1746.591797	6532.327148
1745.001953	6567.141602
1743.414063	6548.445801
1741.824219	6636.725586
1740.234375	6640.040527
1738.644531	6721.973145
1737.054688	6762.997070
1735.462891	6910.880859
1733.873047	6865.420410
1732.281250	7003.792480
1730.689453	7018.018555
1729.097656	6928.591797
1727.505859	7060.581543
1725.912109	7165.829590
1724.320313	7154.896973
1722.726563	7261.648438
1721.132813	7267.955566
1719.539063	7371.500488
1717.945313	7399.733887
1716.349609	7484.393555
1714.755859	7260.237305
1713.160156	7363.694824
1711.564453	7451.440430
1709.968750	7515.651855
1708.371094	7404.435059
1706.775391	7510.903809
1705.177734	7449.827637
1703.580078	7690.838379
1701.982422	7825.343262
1700.384766	7731.384766
1698.787109	7729.747070
1697.187500	7773.458496
1695.587891	7684.259766
1693.990234	7735.776855
1692.390625	7763.830078
1690.789063	7880.930176
1689.189453	7818.337402
1687.587891	7818.242188
1685.988281	7993.028320
1684.386719	8124.028320
1682.785156	8031.780273
1681.181641	8125.265137
1679.580078	8276.433594
1677.976563	8294.956055
1676.373047	8204.307617
1674.769531	8280.523438
1673.166016	8227.326172
1671.562500	8476.494141
1669.957031	8340.696289
1668.353516	8352.946289
1666.748047	8496.018555
1665.142578	8671.729492
1663.537109	8570.252930
1661.929688	8587.111328
1660.324219	8804.706055
1658.716797	8941.304688
1657.109375	9074.733398
1655.501953	9447.599609
1653.894531	9349.194336
1652.285156	9484.003906
1650.677734	9635.851563
1649.068359	9680.419922
1647.458984	9749.824219
1645.849609	9890.644531
1644.240234	9865.250000
1642.628906	10122.423828
1641.019531	10065.945313
1639.408203	10412.973633
1637.796875	10359.558594
1636.185547	10427.159180
1634.572266	10615.698242
1632.960938	10540.565430
1631.347656	10800.308594
1629.734375	10952.998047
1628.121094	11021.946289
1626.507813	11307.755859
1624.894531	11316.191406
1623.279297	11323.074219
1621.664063	11622.568359
1620.048828	11773.335938
1618.433594	11722.854492
1616.818359	11989.577148
1615.203125	12138.621094
1613.585938	12600.009766
1611.968750	12682.369141
1610.351563	13172.816406
1608.734375	13505.403320
1607.117188	13839.392578
1605.498047	14024.923828
1603.878906	14341.667969
1602.261719	14364.862305
1600.640625	14476.050781
1599.021484	14355.648438
1597.402344	14414.317383
1595.781250	14286.262695
1594.162109	14582.484375
1592.541016	14423.599609
1590.919922	14678.031250
1589.296875	14856.811523
1587.675781	14770.408203
1586.052734	14736.434570
1584.429688	14888.893555
1582.806641	15065.931641
1581.183594	15188.993164
1579.560547	15244.255859
1577.935547	15234.840820
1576.312500	15473.209961
1574.687500	15377.581055
1573.062500	15501.977539
1571.435547	15940.075195
1569.810547	16015.088867
1568.183594	16289.926758
1566.558594	16429.386719
1564.931641	16322.912109
1563.304688	16216.482422
1561.675781	16593.953125
1560.048828	16114.327148
1558.419922	16390.318359
1556.791016	15983.087891
1555.162109	16071.749023
1553.533203	16339.896484
1551.904297	16630.939453
1550.273438	16880.445313
1548.642578	17344.521484
1547.011719	17616.761719
1545.380859	17921.070313
1543.750000	18061.277344
1542.119141	17878.148438
1540.486328	17776.279297
1538.853516	17509.058594
1537.220703	16966.347656
1535.587891	17005.570313
1533.955078	16424.935547
1532.320313	15968.490234
1530.685547	15652.981445
1529.052734	15323.841797
1527.416016	15101.882813
1525.781250	15060.418945
1524.146484	14734.671875
1522.509766	14412.119141
1520.873047	14485.414063
1519.236328	14288.307617
1517.599609	14124.882813
1515.962891	14065.352539
1514.324219	13804.344727
1512.687500	13696.068359
1511.048828	13276.561523
1509.410156	13249.295898
1507.771484	12953.604492
1506.130859	12578.746094
1504.492188	12353.453125
1502.851563	12145.023438
1501.210938	12084.500000
1499.570313	11940.205078
1497.927734	11849.285156
1496.287109	11718.807617
1494.644531	11694.965820
1493.001953	11497.596680
1491.359375	11591.000000
1489.716797	11501.769531
1488.074219	11195.034180
1486.429688	11318.858398
1484.785156	11290.565430
1483.140625	11221.237305
1481.496094	11404.250000
1479.851563	11341.002930
1478.207031	11452.502930
1476.560547	11421.168945
1474.914063	11552.343750
1473.267578	11707.752930
1471.621094	11626.288086
1469.972656	11623.775391
1468.326172	11695.612305
1466.677734	11664.260742
1465.029297	11605.622070
1463.380859	11622.824219
1461.732422	11705.208008
1460.082031	11834.541016
1458.431641	12066.861328
1456.783203	11915.776367
1455.132813	11872.299805
1453.480469	11774.322266
1451.830078	11706.668945
1450.177734	11711.701172
1448.527344	11588.092773
1446.875000	11381.316406
1445.220703	11348.595703
1443.568359	11461.079102
1441.916016	11653.653320
1440.261719	11759.972656
1438.607422	11870.779297
1436.953125	12220.291016
1435.298828	12388.356445
1433.642578	12376.605469
1431.988281	12305.962891
1430.332031	12324.428711
1428.675781	12004.764648
1427.019531	11760.695313
1425.361328	11275.321289
1423.705078	10904.802734
1422.046875	10686.766602
1420.388672	10491.441406
1418.730469	10284.141602
1417.072266	10081.451172
1415.412109	10110.901367
1413.753906	9986.674805
1412.093750	9720.918945
1410.433594	9720.308594
1408.773438	9582.695313
1407.111328	9734.138672
1405.451172	9793.718750
1403.789063	9845.749023
1402.126953	9912.797852
1400.464844	10014.406250
1398.802734	9911.484375
1397.138672	9909.323242
1395.474609	10003.348633
1393.812500	9696.143555
1392.146484	9606.897461
1390.482422	9529.705078
1388.818359	9506.602539
1387.152344	9554.069336
1385.486328	9436.410156
1383.820313	9591.914063
1382.154297	9630.326172
1380.488281	9742.218750
1378.820313	9888.553711
1377.154297	10013.832031
1375.486328	10197.515625
1373.818359	10420.083008
1372.148438	10239.503906
1370.480469	10379.572266
1368.810547	10344.352539
1367.140625	10159.414063
1365.470703	10157.189453
1363.800781	10101.084961
1362.130859	9913.325195
1360.458984	10006.899414
1358.787109	9879.068359
1357.115234	9987.560547
1355.443359	10034.708008
1353.771484	9929.372070
1352.097656	10076.633789
1350.423828	10322.436523
1348.751953	10657.754883
1347.076172	11036.233398
1345.402344	11324.959961
1343.728516	11885.238281
1342.052734	12306.475586
1340.376953	12830.479492
1338.701172	13205.077148
1337.025391	13327.456055
1335.347656	13560.121094
1333.671875	13859.768555
1331.994141	13800.083984
1330.316406	13661.447266
1328.638672	13735.911133
1326.960938	13400.737305
1325.281250	13507.984375
1323.601563	13409.727539
1321.921875	13359.143555
1320.242188	12999.043945
1318.562500	12649.515625
1316.880859	12486.079102
1315.201172	12310.815430
1313.519531	12128.193359
1311.837891	12112.140625
1310.154297	11665.098633
1308.472656	11690.756836
1306.789063	11533.681641
1305.105469	11381.130859
1303.421875	11157.372070
1301.738281	10899.566406
1300.054688	10591.409180
1298.369141	10605.392578
1296.683594	10519.969727
1294.998047	10235.829102
1293.312500	10309.195313
1291.626953	10241.682617
1289.939453	10165.304688
1288.253906	10253.454102
1286.566406	10323.784180
1284.878906	10317.055664
1283.189453	10371.047852
1281.501953	10165.907227
1279.812500	10419.746094
1278.123047	10242.802734
1276.433594	10318.954102
1274.744141	10295.957031
1273.052734	10357.270508
1271.363281	10260.340820
1269.671875	10203.367188
1267.980469	10241.009766
1266.289063	10244.648438
1264.595703	10131.575195
1262.904297	9969.809570
1261.210938	9963.166016
1259.517578	9774.932617
1257.824219	9450.988281
1256.128906	9313.124023
1254.435547	9281.547852
1252.740234	9133.455078
1251.044922	9073.911133
1249.349609	9018.815430
1247.652344	8839.921875
1245.957031	8992.697266
1244.259766	9170.451172
1242.562500	9174.301758
1240.865234	9169.313477
1239.167969	9080.399414
1237.468750	9043.046875
1235.769531	9102.845703
1234.072266	9139.074219
1232.371094	9172.343750
1230.671875	9064.402344
1228.972656	9082.967773
1227.271484	8945.690430
1225.570313	8879.023438
1223.869141	8797.691406
1222.167969	8659.097656
1220.464844	8765.856445
1218.763672	8492.229492
1217.060547	8596.039063
1215.357422	8486.967773
1213.654297	8508.550781
1211.949219	8452.363281
1210.246094	8440.206055
1208.541016	8433.918945
1206.835938	8578.650391
1205.130859	8419.884766
1203.423828	8612.915039
1201.718750	8542.123047
1200.011719	8689.627930
1198.304688	8690.610352
1196.597656	8799.944336
1194.888672	8676.469727
1193.181641	8476.944336
1191.472656	8496.992188
1189.763672	8432.182617
1188.054688	8665.766602
1186.343750	8520.521484
1184.634766	8511.300781
1182.923828	8328.152344
1181.212891	8259.065430
1179.501953	8263.054688
1177.791016	8286.028320
1176.078125	8288.547852
1174.365234	8277.925781
1172.652344	8182.649414
1170.939453	8134.112793
1169.226563	8294.228516
1167.511719	8341.957031
1165.798828	8334.247070
1164.083984	8400.897461
1162.369141	8388.802734
1160.652344	8385.457031
1158.937500	8341.315430
1157.220703	8434.120117
1155.503906	8280.760742
1153.787109	8278.894531
1152.070313	8509.938477
1150.351563	8620.082031
1148.632813	8856.763672
1146.916016	9007.509766
1145.195313	9089.831055
1143.476563	9342.237305
1141.757813	9408.453125
1140.037109	9352.553711
1138.316406	9487.029297
1136.595703	9216.130859
1134.875000	8803.018555
1133.152344	8503.354492
1131.429688	8015.096680
1129.708984	8071.341309
1127.984375	7735.765137
1126.261719	7645.519043
1124.539063	7334.846680
1122.814453	7176.575195
1121.089844	7143.055664
1119.365234	7009.538574
1117.640625	6954.333496
1115.914063	6890.460449
1114.187500	6670.181152
1112.462891	6729.491211
1110.734375	6578.841309
1109.007813	6590.377441
1107.281250	6491.923340
1105.552734	6416.663086
1103.824219	6270.557617
1102.095703	6312.519531
1100.367188	6334.220215
1098.636719	6241.714844
1096.908203	6302.439941
1095.177734	6285.115234
1093.447266	6233.128906
1091.714844	6188.386230
1089.984375	6145.107422
1088.251953	6091.742676
1086.519531	6163.961426
1084.787109	6136.587402
1083.054688	6236.169922
1081.320313	6205.906250
1079.585938	6247.750488
1077.851563	6234.795410
1076.117188	6123.841309
1074.382813	6210.342285
1072.648438	6338.580078
1070.912109	6123.977051
1069.175781	6188.817871
1067.439453	6315.531738
1065.701172	6375.979980
1063.964844	6361.575195
1062.226563	6314.087891
1060.488281	6345.727539
1058.750000	6230.680664
1057.011719	6177.503418
1055.271484	6150.221191
1053.531250	6088.463379
1051.791016	5908.928223
1050.050781	5880.287598
1048.310547	5965.103027
1046.568359	5909.184082
1044.826172	5932.233398
1043.083984	5945.226563
1041.341797	5938.127930
1039.599609	6005.617676
1037.855469	5892.389648
1036.113281	6018.639160
1034.369141	6031.594727
1032.623047	6013.016602
1030.878906	5861.205078
1029.132813	6064.691895
1027.386719	6069.030273
1025.640625	6057.616699
1023.894531	6238.014648
1022.148438	6195.083008
1020.400391	6240.876465
1018.652344	6362.459473
1016.904297	6319.526855
1015.156250	6202.266602
1013.406250	6193.695313
1011.658203	6166.548828
1009.908203	6120.840820
1008.158203	6156.573730
1006.408203	6173.724121
1004.656250	6290.811035
1002.904297	6404.988770
1001.152344	6283.637207
999.400391	6497.638184
997.648438	6496.143555
995.896484	6322.085449
994.142578	6182.326172
992.388672	6092.522949
990.634766	6150.976563
988.878906	6170.932129
987.125000	6065.521973
985.369141	6136.757324
983.613281	6038.521484
981.857422	6010.083008
980.099609	6010.120117
978.343750	5884.945313
976.585938	5886.433105
974.828125	5848.097656
973.070313	5777.076172
971.310547	5896.574219
969.552734	5794.306152
967.792969	5973.421387
966.033203	5972.041504
964.273438	5936.576172
962.511719	6038.857422
960.750000	6199.293457
958.990234	6196.441406
957.226563	6280.143555
955.464844	6291.458496
953.703125	6152.431641
951.939453	6057.424316
950.175781	5915.679199
948.412109	5945.490234
946.648438	5765.577637
944.882813	5632.496582
943.117188	5588.703125
941.351563	5716.261719
939.585938	5567.710449
937.820313	5767.394531
936.052734	5628.804199
934.285156	5655.791992
932.517578	5662.966309
930.750000	5566.915039
928.982422	5609.447266
927.212891	5626.519043
925.443359	5567.279785
923.673828	5557.511230
921.904297	5657.910645
920.132813	5563.402344
918.361328	5543.757813
916.591797	5569.286133
914.818359	5539.770996
913.046875	5544.125977
911.275391	5540.016602
909.501953	5504.886719
907.728516	5433.119629
905.955078	5495.279297
904.179688	5517.955078
902.406250	5561.750977
900.630859	5491.443848
898.855469	5528.184082
897.080078	5578.983887
895.302734	5641.019531
893.525391	5555.278809
891.750000	5759.375000
889.970703	5665.206543
888.193359	5502.181152
886.416016	5484.028809
884.636719	5520.698242
882.857422	5515.195313
881.078125	5327.067871
879.296875	5433.970703
877.517578	5479.040039
875.736328	5394.935059
873.955078	5493.324707
872.173828	5501.864258
870.390625	5452.882324
868.609375	5283.305664
866.826172	5441.921875
865.042969	5328.500488
863.259766	5409.946289
861.474609	5264.356445
859.689453	5321.962891
857.904297	5373.939453
856.119141	5357.280273
854.333984	5508.616211
852.546875	5531.120117
850.761719	5580.198730
848.974609	5647.439453
847.185547	5563.600586
845.398438	5400.099121
843.609375	5352.702148
841.822266	5407.353027
840.031250	5256.576660
838.242188	5230.199707
836.453125	5248.526855
834.662109	5136.988770
832.871094	5096.697266
831.080078	5074.567383
829.289063	5097.097656
827.496094	5133.566406
825.703125	5097.495605
823.910156	5189.719727
822.117188	5164.803711
820.324219	5180.315430
818.529297	5245.979980
816.734375	5345.045898
814.939453	5417.604004
813.144531	5452.532715
811.347656	5470.740234
809.550781	5463.887695
807.755859	5431.993164
805.957031	5379.246582
804.160156	5361.292969
802.361328	5226.552734
800.564453	5178.060547
798.765625	5143.488281
796.964844	5108.932129
795.166016	5024.383789
793.365234	4913.487793
791.564453	5158.086426
789.763672	5159.648438
787.962891	5029.368652
786.160156	5017.083984
784.359375	4936.835449
782.556641	4964.795410
780.751953	5020.471191
778.949219	4786.413086
777.144531	4880.907715
775.339844	4872.829102
773.535156	4838.436035
771.730469	4878.840332
769.925781	4832.000488
768.119141	4866.849609
766.312500	4767.446289
764.505859	4771.855469
762.697266	4845.423340
760.890625	4961.825684
759.082031	4850.048828
757.273438	4854.432129
755.464844	4904.416992
753.654297	5012.403809
751.845703	4971.163086
750.035156	5167.462402
748.224609	5323.630859
746.412109	5436.936035
744.601563	5862.057617
742.789063	6274.561035
740.976563	7252.383301
739.164063	8661.363281
737.349609	10905.139648
735.537109	13575.133789
733.722656	15535.572266
731.908203	16246.908203
730.091797	15053.035156
728.277344	12751.222656
726.460938	10180.666016
724.644531	8254.090820
722.828125	6997.183594
721.009766	6278.777344
719.193359	5897.682129
717.375000	5650.147949
715.556641	5430.225586
713.736328	5257.136719
711.917969	5101.992676
710.097656	5084.298340
708.277344	5022.661621
706.457031	4959.680664
704.636719	4944.776855
702.814453	4994.385254
700.992188	5079.645020
699.169922	5097.645508
697.347656	4977.116699
695.523438	5062.318848
693.699219	4969.271484
691.875000	5114.736328
690.050781	5151.887207
688.226563	5146.554688
686.400391	5089.181641
684.574219	5219.416992
682.748047	5223.652832
680.921875	5162.195801
679.095703	5113.081055
677.267578	5110.498535
675.439453	5083.299805
673.611328	5176.432617
671.781250	5180.669922
669.953125	5197.204590
668.123047	5328.498047
666.292969	5380.503418
664.460938	5417.461914
662.630859	5503.552734
660.798828	5496.783691
658.966797	5378.115723
657.134766	5481.890137
655.302734	5569.246094
653.468750	5505.191406
651.634766	5518.877930
649.800781	5434.419434
647.966797	5482.183105
646.130859	5404.584473
644.294922	5376.056641
642.458984	5393.840820
640.623047	5378.941895
638.787109	5324.578613
636.949219	5320.588379
635.111328	5470.330078
633.273438	5339.815430
631.435547	5342.622559
629.595703	5341.349121
627.757813	5458.321777
625.917969	5412.179688
624.076172	5408.172852
622.236328	5311.811523
620.394531	5238.579102
618.552734	5177.598633
616.710938	5143.791016
614.869141	5047.583008
613.025391	4894.444824
611.183594	4829.534668
609.339844	4770.078613
607.494141	4801.474609
605.650391	4714.947754
603.804688	4640.655762
601.958984	4627.356934
600.113281	4554.475098
598.267578	4552.034180
596.419922	4480.558105
594.572266	4487.607910
592.724609	4422.945801
590.876953	4427.300293
589.027344	4419.481445
587.179688	4346.768555
585.330078	4425.480957
583.480469	4309.556641
581.628906	4349.058594
579.779297	4342.616699
577.927734	4310.520020
576.076172	4410.746582
574.222656	4354.352051
572.371094	4389.746582
570.517578	4473.692383
568.664063	4500.947754
566.810547	4556.508301
564.955078	4439.477539
563.101563	4675.634766
561.246094	4483.170410
559.390625	4460.543457
557.533203	4424.458496
555.677734	4422.053711
553.820313	4369.839844
551.962891	4406.479980
550.105469	4336.801758
548.246094	4413.789063
546.386719	4426.182617
544.527344	4364.616211
542.667969	4374.326660
540.808594	4436.446777
538.947266	4393.731934
537.085938	4396.710449
535.224609	4331.194336
533.363281	4391.921387
531.500000	4417.717285
529.638672	4357.610352
527.775391	4402.186035
525.910156	4449.422363
524.046875	4552.961426
522.181641	4917.898438
520.316406	5302.767090
518.451172	5072.337402
516.585938	4694.641113
514.718750	4440.356445
512.851563	4223.689453
510.984375	4155.736328
509.117188	4185.526855
507.250000	4121.629883
505.380859	4254.429688
503.511719	4126.343750
501.642578	4152.100098
499.771484	4082.923096
497.902344	4151.447754
496.031250	4186.532715
494.160156	4161.482910
492.287109	4195.212402
490.416016	4180.854004
488.542969	4151.817871
486.669922	4293.632813
484.796875	4219.214844
482.921875	4211.533691
481.046875	4131.835938
479.171875	4104.178223
477.296875	4056.537354
475.421875	3978.265625
473.544922	4034.606934
471.667969	4020.319092
469.791016	4032.673584
467.914063	4057.005371
466.035156	4002.786865
464.156250	3928.631592
462.277344	3948.978516
460.398438	3896.154297
458.519531	3944.426025
456.638672	3946.139893
454.757813	3923.926270
452.876953	3877.802490
450.994141	4000.433594
449.113281	3875.943848
447.230469	4022.419678
445.347656	3953.745361
443.462891	3861.211670
441.580078	3953.177246
439.695313	3929.676025
437.810547	3892.921875
435.925781	3905.249512
434.039063	3857.912598
432.152344	3835.781006
430.267578	3864.014160
428.378906	3869.711914
426.492188	3879.380127
424.603516	3914.202637
422.714844	3860.311035
420.826172	3904.385498
418.937500	3891.540771
417.046875	3951.460938
415.158203	3898.933594
413.265625	3872.876465
411.375000	3898.386963
409.484375	3894.809570
407.591797	3801.385010
405.699219	3848.029541
403.806641	3892.010010
401.912109	3826.380127
400.019531	3923.145752
