#Wave		#Intensity
1585.210938	8082.381836
1584.209961	8119.846680
1583.208984	8008.290527
1582.208008	7994.148438
1581.206055	8094.832031
1580.204102	8118.110840
1579.202148	8091.478516
1578.200195	7927.657227
1577.198242	8175.417480
1576.195313	8213.620117
1575.192383	8142.115234
1574.189453	8020.789551
1573.186523	8181.105957
1572.182617	8139.548340
1571.178711	8073.098145
1570.174805	8103.801758
1569.170898	8037.385742
1568.166992	8130.317871
1567.162109	7989.257813
1566.158203	7975.161621
1565.153320	7998.388184
1564.147461	8061.402344
1563.142578	8014.970215
1562.136719	8043.145996
1561.130859	8108.596680
1560.125000	8261.003906
1559.119141	8361.167969
1558.113281	8391.731445
1557.106445	8427.249023
1556.099609	8485.101563
1555.092773	8562.790039
1554.084961	8563.500000
1553.078125	8509.611328
1552.070313	8520.255859
1551.062500	8627.639648
1550.054688	8482.005859
1549.045898	8457.933594
1548.038086	8485.931641
1547.029297	8499.045898
1546.020508	8484.895508
1545.011719	8089.208496
1544.001953	8164.321777
1542.992188	8001.657227
1541.982422	7950.480469
1540.972656	8003.295410
1539.962891	8011.538086
1538.952148	7806.972656
1537.942383	7788.038574
1536.931641	7774.058594
1535.919922	7829.326660
1534.909180	7741.170898
1533.897461	7724.736816
1532.886719	7653.937988
1531.874023	7691.887695
1530.862305	7784.169434
1529.850586	7634.365723
1528.837891	7724.150879
1527.825195	7729.958496
1526.812500	7757.978027
1525.799805	7702.079102
1524.786133	7609.193848
1523.772461	7859.232422
1522.758789	7741.688965
1521.745117	7693.236328
1520.731445	7733.552734
1519.716797	7852.724609
1518.702148	7784.563965
1517.687500	7874.109863
1516.672852	7660.641602
1515.657227	7905.327148
1514.642578	7864.294434
1513.626953	8108.835938
1512.610352	7996.402832
1511.594727	7965.218750
1510.579102	7956.188477
1509.562500	7883.210449
1508.545898	7714.355469
1507.529297	7899.614258
1506.511719	7883.229492
1505.494141	7861.935547
1504.477539	8054.418945
1503.458984	7841.482422
1502.441406	7918.453125
1501.423828	7887.345703
1500.405273	7839.064941
1499.386719	7918.441895
1498.368164	7914.347168
1497.348633	7836.647461
1496.330078	7940.504395
1495.310547	8090.916504
1494.291016	8020.583008
1493.271484	8016.469727
1492.250977	7970.690430
1491.231445	7942.083008
1490.210938	8013.937012
1489.190430	7960.836914
1488.168945	8071.839844
1487.148438	7969.779785
1486.126953	8088.078125
1485.105469	8159.825195
1484.083984	8153.239746
1483.061523	8053.691895
1482.040039	8096.049316
1481.017578	8113.934082
1479.995117	8327.405273
1478.971680	8462.565430
1477.949219	8380.162109
1476.925781	8537.245117
1475.902344	8569.675781
1474.878906	8680.248047
1473.855469	8842.054688
1472.831055	8847.544922
1471.806641	8857.914063
1470.782227	8834.113281
1469.757813	9193.379883
1468.733398	9286.607422
1467.708008	9484.666016
1466.682617	9448.561523
1465.657227	9687.947266
1464.631836	9817.552734
1463.605469	10241.958984
1462.579102	10554.118164
1461.552734	10525.134766
1460.526367	10722.645508
1459.500000	10776.419922
1458.472656	10766.880859
1457.445313	10604.015625
1456.417969	10655.346680
1455.390625	10273.621094
1454.362305	10193.655273
1453.334961	9846.228516
1452.306641	9897.671875
1451.277344	9404.603516
1450.249023	9429.382813
1449.219727	9267.061523
1448.191406	9129.099609
1447.162109	8935.333008
1446.131836	8899.481445
1445.102539	8853.933594
1444.072266	8966.173828
1443.041992	8876.949219
1442.011719	8678.581055
1440.981445	8773.806641
1439.950195	8827.762695
1438.918945	8736.213867
1437.887695	8729.549805
1436.856445	8686.533203
1435.825195	8626.570313
1434.792969	8649.003906
1433.760742	8543.051758
1432.728516	8386.288086
1431.696289	8500.760742
1430.663086	8346.491211
1429.629883	8364.116211
1428.596680	8343.019531
1427.563477	8113.882813
1426.530273	8293.594727
1425.496094	8197.561523
1424.461914	8142.667480
1423.427734	8157.893555
1422.393555	8124.779785
1421.358398	7922.548828
1420.323242	8133.476563
1419.288086	8068.990234
1418.252930	8093.871582
1417.217773	8072.874023
1416.181641	8010.852539
1415.145508	8240.844727
1414.109375	7932.725586
1413.073242	8198.819336
1412.036133	8209.169922
1411.000000	8195.405273
1409.962891	8429.938477
1408.924805	8473.974609
1407.887695	8493.896484
1406.849609	8651.127930
1405.812500	8909.456055
1404.773438	9285.672852
1403.735352	9481.161133
1402.697266	9654.903320
1401.658203	9583.099609
1400.619141	9730.280273
1399.580078	9846.125977
1398.540039	9795.971680
1397.500977	9914.159180
1396.460938	9808.714844
1395.420898	9830.705078
1394.380859	9641.213867
1393.339844	9567.125000
1392.298828	9598.757813
1391.257813	9567.936523
1390.216797	9215.380859
1389.175781	9364.694336
1388.133789	9405.941406
1387.091797	9406.377930
1386.049805	9682.708008
1385.007813	9757.441406
1383.964844	10105.524414
1382.922852	10129.788086
1381.879883	10247.526367
1380.835938	10425.129883
1379.792969	10784.760742
1378.749023	10902.286133
1377.706055	11268.850586
1376.661133	11220.999023
1375.617188	11352.722656
1374.573242	11455.667969
1373.528320	11565.748047
1372.483398	11276.221680
1371.438477	11092.065430
1370.392578	11037.131836
1369.347656	10977.438477
1368.301758	10707.397461
1367.255859	10549.803711
1366.208984	10437.675781
1365.163086	10289.758789
1364.116211	10070.245117
1363.069336	10070.526367
1362.022461	10149.596680
1360.974609	9880.119141
1359.927734	9751.562500
1358.879883	9866.438477
1357.832031	9754.636719
1356.783203	9814.606445
1355.735352	9888.857422
1354.686523	10094.201172
1353.637695	10115.922852
1352.588867	10161.464844
1351.539063	10373.768555
1350.490234	10493.081055
1349.440430	10936.239258
1348.390625	11355.398438
1347.339844	11567.271484
1346.290039	11988.501953
1345.239258	12411.934570
1344.188477	12599.659180
1343.137695	12965.698242
1342.085938	13198.410156
1341.034180	13431.023438
1339.982422	13701.571289
1338.930664	13917.342773
1337.878906	14304.102539
1336.826172	14151.437500
1335.773438	14421.603516
1334.720703	14371.083984
1333.667969	14325.333008
1332.614258	14049.360352
1331.561523	13699.936523
1330.507813	13587.918945
1329.453125	13687.065430
1328.399414	13107.888672
1327.344727	13010.290039
1326.290039	12756.270508
1325.235352	12568.720703
1324.180664	12288.833984
1323.125000	12373.907227
1322.070313	12044.436523
1321.014648	11715.102539
1319.958008	11556.375977
1318.902344	11276.991211
1317.845703	11388.216797
1316.789063	11030.901367
1315.732422	10929.223633
1314.675781	10732.982422
1313.618164	10626.678711
1312.560547	10388.028320
1311.502930	10300.750000
1310.445313	9998.461914
1309.386719	9856.959961
1308.329102	9909.212891
1307.270508	9760.703125
1306.210938	9480.030273
1305.152344	9452.065430
1304.092773	9289.583008
1303.033203	9285.265625
1301.973633	9214.892578
1300.914063	9222.383789
1299.853516	8970.473633
1298.792969	8952.078125
1297.732422	8860.617188
1296.671875	8813.971680
1295.611328	8703.727539
1294.549805	8753.715820
1293.488281	8575.229492
1292.426758	8646.415039
1291.364258	8392.691406
1290.302734	8600.397461
1289.240234	8415.032227
1288.177734	8305.031250
1287.114258	8477.339844
1286.051758	8278.005859
1284.988281	8506.674805
1283.924805	8749.351563
1282.861328	8792.156250
1281.796875	8867.838867
1280.732422	8743.804688
1279.667969	8885.227539
1278.603516	9080.599609
1277.539063	9268.845703
1276.473633	9480.483398
1275.408203	9729.578125
1274.342773	9600.822266
1273.277344	9558.913086
1272.210938	9671.806641
1271.145508	9442.318359
1270.079102	9557.532227
1269.011719	9243.788086
1267.945313	9441.007813
1266.877930	9059.479492
1265.810547	8926.392578
1264.743164	8837.855469
1263.674805	8697.847656
1262.607422	8649.188477
1261.539063	8350.138672
1260.470703	8521.512695
1259.401367	8323.205078
1258.333008	8131.997070
1257.263672	8153.655273
1256.194336	8088.804688
1255.125000	8103.449219
1254.054688	7926.468750
1252.985352	8020.575195
1251.915039	7962.812988
1250.843750	8014.834473
1249.773438	7810.002441
1248.702148	7815.346680
1247.630859	8007.395020
1246.559570	7861.026367
1245.488281	7966.666992
1244.416016	7741.068359
1243.343750	7774.400879
1242.271484	7863.670898
1241.199219	7782.749512
1240.125977	7785.755371
1239.053711	7902.922852
1237.980469	7796.419434
1236.906250	7932.164551
1235.833008	8016.626953
1234.758789	7935.772461
1233.684570	7964.339355
1232.610352	7874.221680
1231.536133	7937.684082
1230.460938	7966.230469
1229.385742	7957.557617
1228.310547	7941.912598
1227.235352	8068.063477
1226.159180	7880.430176
1225.083008	7960.070313
1224.006836	7777.184570
1222.930664	7866.101563
1221.853516	7783.156250
1220.777344	7790.781738
1219.700195	7886.600098
1218.622070	7799.060059
1217.544922	7855.395020
1216.466797	7879.232422
1215.388672	7819.576172
1214.310547	7704.301270
1213.232422	7964.588379
1212.153320	7877.140137
1211.074219	7875.457520
1209.995117	7885.357422
1208.916016	7844.300781
1207.835938	7828.730957
1206.755859	7910.398438
1205.675781	8024.433105
1204.595703	7858.421387
1203.514648	7768.826660
1202.434570	7783.356445
1201.353516	7767.815918
1200.271484	7867.883789
1199.190430	7669.718262
1198.108398	7513.236328
1197.026367	7673.366699
1195.944336	7734.095703
1194.862305	7690.867188
1193.779297	7442.148438
1192.696289	7532.897461
1191.613281	7480.505859
1190.530273	7423.520508
1189.446289	7518.827148
1188.362305	7544.894531
1187.278320	7432.583984
1186.194336	7405.627930
1185.109375	7323.360352
1184.024414	7241.127930
1182.939453	7375.517578
1181.854492	7189.644043
1180.768555	7107.491211
1179.683594	7133.597168
1178.597656	7138.971680
1177.510742	6971.719238
1176.424805	7108.291992
1175.337891	6994.031738
1174.250977	7075.335449
1173.164063	7193.398438
1172.077148	7194.151367
1170.989258	7082.267578
1169.901367	7207.145508
1168.813477	7003.397949
1167.724609	7098.374512
1166.636719	7066.990234
1165.547852	7076.950684
1164.458984	7029.513184
1163.369141	7213.914063
1162.280273	7196.297852
1161.190430	7063.976074
1160.100586	7023.461426
1159.010742	7049.467773
1157.919922	7155.708496
1156.829102	7048.722656
1155.738281	7063.245605
1154.647461	7047.975586
1153.555664	7211.392578
1152.464844	7109.064941
1151.373047	7251.789063
1150.280273	7179.256348
1149.188477	7294.437012
1148.095703	7249.384766
1147.002930	7298.152344
1145.910156	7275.991211
1144.817383	7157.791992
1143.723633	7185.968750
1142.629883	7330.710938
1141.536133	7214.859375
1140.441406	7181.312988
1139.347656	7220.879395
1138.252930	7246.725586
1137.158203	7267.992676
1136.062500	7147.711426
1134.967773	7050.305176
1133.872070	7167.438965
1132.776367	7209.235352
1131.679688	7205.394531
1130.583984	7311.014648
1129.487305	7348.190918
1128.390625	7310.129395
1127.292969	7297.151855
1126.196289	7040.386230
1125.098633	7182.372070
1124.000977	7235.475098
1122.903320	7131.443848
1121.804688	7216.404297
1120.706055	7269.463379
1119.607422	7069.920410
1118.508789	7195.786621
1117.409180	7187.402832
1116.310547	7099.431641
1115.210938	7186.558105
1114.110352	7171.360352
1113.010742	7181.166504
1111.910156	7079.638672
1110.809570	7159.876953
1109.708984	7167.406250
1108.607422	7174.931641
1107.506836	7175.643066
1106.405273	7083.301270
1105.303711	7063.609375
1104.201172	7089.297363
1103.098633	6963.011719
1101.996094	6975.103027
1100.893555	6948.647949
1099.791016	6817.940430
1098.687500	6879.908203
1097.583984	6921.458008
1096.480469	7119.282227
1095.376953	7056.587402
1094.272461	6719.958984
1093.167969	6886.005371
1092.063477	6889.031738
1090.958008	6846.803223
1089.853516	6838.525391
1088.748047	6963.688477
1087.642578	6835.544922
1086.536133	6881.529297
1085.430664	6968.176270
1084.324219	6935.020996
1083.217773	6915.434570
1082.110352	6866.492676
1081.003906	6914.675293
1079.896484	6971.867188
1078.789063	6909.400391
1077.680664	6876.297363
1076.573242	6899.614746
1075.464844	6938.711426
1074.356445	6799.624512
1073.247070	6942.444336
1072.138672	6839.484863
1071.029297	6790.660156
1069.919922	6816.215332
1068.809570	6866.539551
1067.700195	6840.262695
1066.589844	6964.868164
1065.479492	6900.307617
1064.368164	6946.064941
1063.257813	6816.275879
1062.146484	6857.530762
1061.035156	6896.518066
1059.922852	6910.750000
1058.811523	6745.105469
1057.699219	7004.381348
1056.586914	6856.767090
1055.473633	6960.868652
1054.361328	7006.517090
1053.248047	6955.571289
1052.134766	6978.746094
1051.021484	6916.602539
1049.907227	6849.997070
1048.792969	7032.497559
1047.678711	6943.459961
1046.564453	7004.738770
1045.449219	6953.867188
1044.333984	6909.743164
1043.218750	7071.854004
1042.103516	6982.902344
1040.987305	6898.470215
1039.871094	6840.955078
1038.754883	6985.019531
1037.638672	7077.522949
1036.521484	7058.059082
1035.404297	7119.171875
1034.287109	7005.729492
1033.169922	7169.730469
1032.051758	7266.561523
1030.933594	7184.464355
1029.815430	7330.431152
1028.697266	7074.018555
1027.578125	7275.808594
1026.458984	7173.672363
1025.339844	7163.158203
1024.220703	7337.996094
1023.100586	7309.587891
1021.980469	7265.566895
1020.860352	7290.745605
1019.740234	7295.831543
1018.619141	7421.370117
1017.498047	7265.853027
1016.376953	7246.413086
1015.255859	7456.586426
1014.133789	7421.510742
1013.011719	7384.222168
1011.889648	7300.167480
1010.767578	7447.778809
1009.644531	7486.215332
1008.521484	7335.405273
1007.398438	7338.236328
1006.274414	7338.840332
1005.151367	7457.355469
1004.027344	7204.366211
1002.902344	7267.263184
1001.778320	7414.615723
1000.653320	7315.173828
999.528320	7280.221680
998.403320	7367.483398
997.278320	7294.771484
996.152344	7273.169922
995.026367	7204.950684
993.900391	7256.631836
992.773438	7217.296387
991.646484	7217.916992
990.519531	7267.340820
989.392578	7090.519531
988.265625	7128.861328
987.137695	7023.087891
986.009766	7145.649414
984.881836	7090.883789
983.752930	7133.619629
982.624023	7074.449707
981.495117	7052.950684
980.366211	7095.665039
979.236328	7058.675293
978.106445	7158.904785
976.976563	7037.842773
975.846680	6881.442383
974.715820	7072.313477
973.585938	7008.834961
972.454102	7020.541016
971.323242	7010.141602
970.191406	7010.793457
969.060547	7064.460938
967.927734	7151.231934
966.795898	7156.266113
965.663086	7156.882324
964.530273	7254.608398
963.397461	7447.172852
962.264648	7485.225586
961.130859	7518.849121
959.997070	7669.327637
958.863281	7702.894043
957.729492	7672.525879
956.594727	7666.410156
955.459961	7715.374512
954.325195	7583.700195
953.189453	7443.274902
952.053711	7366.759766
950.917969	7356.312988
949.782227	7374.479492
948.646484	7168.217773
947.509766	7232.610352
946.373047	7125.435059
945.235352	7264.563477
944.098633	7071.696777
942.960938	7147.039551
941.823242	7028.990234
940.685547	6996.666992
939.546875	7091.740234
938.408203	7083.569336
937.269531	7165.408203
936.129883	7095.768555
934.991211	7094.183594
933.851563	7219.839355
932.711914	7152.425781
931.571289	7172.755371
930.431641	7168.959473
929.291016	7200.233887
928.149414	7016.740723
927.008789	6973.544434
925.867188	6989.507324
924.725586	7147.805176
923.583984	7076.144531
922.441406	7148.983398
921.299805	6834.438965
920.157227	6940.116699
919.013672	7023.872559
917.871094	6971.999512
916.727539	6959.505371
915.583984	6942.644043
914.439453	6862.410645
913.295898	6703.552734
912.151367	6721.710449
911.006836	6746.411133
909.861328	6747.082031
908.716797	6828.523438
907.571289	6761.515137
906.424805	6696.718750
905.279297	6747.573242
904.132813	6800.585449
902.986328	6951.699707
901.839844	6871.655273
900.692383	6769.850098
899.545898	6848.956543
898.398438	6853.954102
897.250000	6946.073730
896.102539	6779.011719
894.954102	6982.140625
893.805664	6760.727539
892.656250	6839.726074
891.507813	6899.107422
890.358398	6843.175781
889.208984	6795.967285
888.058594	6868.361816
886.908203	6692.917480
885.758789	6602.308594
884.607422	6776.815430
883.457031	6803.528809
882.305664	6576.132324
881.154297	6744.011719
880.002930	6790.250000
878.850586	6688.886230
877.698242	6735.114746
876.545898	6659.839844
875.393555	6688.702637
874.240234	6693.699707
873.086914	6644.497559
871.933594	6645.166504
870.780273	6700.006836
869.625977	6588.009277
868.471680	6551.868164
867.317383	6736.615723
866.162109	6557.571289
865.007813	6590.721680
863.852539	6695.267578
862.696289	6765.149902
861.541016	6562.465820
860.384766	6651.807617
859.228516	6561.663086
858.072266	6707.163086
856.915039	6690.520508
855.757813	6611.229004
854.600586	6665.895508
853.442383	6722.696777
852.285156	6785.948730
851.126953	6592.300293
849.968750	6728.926758
848.809570	6755.453613
847.650391	6751.768066
846.491211	6597.119629
845.332031	6658.154297
844.171875	6654.491699
843.012695	6568.933594
841.851563	6623.467773
840.691406	6596.117188
839.530273	6493.399414
838.369141	6569.443848
837.208008	6490.457520
836.046875	6622.425293
834.884766	6498.274902
833.722656	6640.936035
832.560547	6622.224121
831.397461	6573.416504
830.234375	6453.687012
829.071289	6594.077637
827.908203	6465.801270
826.744141	6492.262207
825.580078	6606.772949
824.416016	6691.167480
823.251953	6552.249023
822.086914	6527.151367
820.921875	6626.526367
819.756836	6569.241211
818.590820	6602.067871
817.425781	6476.190918
816.259766	6423.264648
815.092773	6423.948730
813.926758	6491.063965
812.759766	6579.572754
811.592773	6618.775391
810.424805	6505.911621
809.257813	6431.637695
808.089844	6522.217773
806.920898	6557.115234
805.752930	6632.647949
804.583984	6586.218262
803.415039	6546.225098
802.246094	6482.729980
801.076172	6536.832520
799.906250	6616.555176
798.736328	6602.229004
797.566406	6536.640625
796.395508	6515.931152
795.224609	6569.961914
794.053711	6557.791504
792.881836	6686.484375
791.710938	6757.507324
790.538086	6681.303711
789.366211	6649.922363
788.194336	6814.723145
787.021484	6849.409668
785.848633	6830.797363
784.674805	6720.568359
783.500977	6765.902344
782.327148	6523.687500
781.153320	6613.761230
779.979492	6637.798340
778.804688	6527.735840
777.629883	6579.443359
776.454102	6577.941406
775.279297	6593.455078
774.103516	6466.489746
772.927734	6530.917480
771.750977	6620.820801
770.575195	6572.558594
769.398438	6634.791992
768.220703	6531.323242
767.043945	6553.189453
765.866211	6636.613281
764.688477	6446.189453
763.510742	6601.748535
762.332031	6576.901855
761.153320	6590.245117
759.974609	6690.527344
758.794922	6640.234375
757.616211	6753.175781
756.436523	6781.298828
755.255859	7006.444824
754.076172	6960.359863
752.895508	7087.946289
751.714844	7217.591309
750.533203	7243.456543
749.352539	7472.468750
748.170898	7644.250488
746.988281	8065.555176
745.806641	8467.633789
744.624023	9190.901367
743.441406	9970.911133
742.258789	11160.550781
741.075195	12537.688477
739.891602	14328.218750
738.708008	16240.416016
737.523438	18318.537109
736.339844	20250.050781
735.155273	21543.324219
733.969727	22462.542969
732.785156	22571.302734
731.599609	21889.140625
730.414063	20490.400391
729.227539	18609.566406
728.041992	16506.193359
726.855469	14643.988281
725.667969	12864.792969
724.481445	11436.022461
723.293945	10332.169922
722.106445	9506.698242
720.918945	8997.298828
719.730469	8408.174805
718.541992	8275.817383
717.353516	7941.613281
716.164063	7643.308594
714.975586	7235.824707
713.786133	7192.127441
712.595703	7022.375000
711.406250	6903.118164
710.215820	6828.021484
709.025391	6698.364258
707.833984	6793.392578
706.642578	6651.208984
705.451172	6630.794434
704.259766	6788.707520
703.068359	6686.471680
701.875977	6760.421875
700.683594	6748.384766
699.490234	6690.241699
698.297852	6600.692871
697.104492	6626.408691
695.910156	6706.568848
694.716797	6742.717773
693.522461	6787.223145
692.328125	6817.056641
691.132813	6936.855469
689.938477	7002.205078
688.743164	6996.409180
687.547852	7042.894043
686.351563	6949.283691
685.155273	6861.986328
683.958984	6783.087402
682.762695	6762.722168
681.565430	6811.292969
680.368164	6770.046875
679.170898	6799.802734
677.973633	6789.886719
676.775391	6744.499023
675.577148	6701.217773
674.378906	6664.213867
673.179688	6627.226563
671.980469	6877.966797
670.781250	6584.566895
669.581055	6787.270508
668.381836	6677.367188
667.181641	6750.812988
665.980469	6863.790527
664.780273	6778.927734
663.579102	6854.379395
662.377930	6950.605469
661.175781	6963.564941
659.973633	6995.238770
658.771484	7243.173828
657.569336	7210.314941
656.367188	7219.043457
655.164063	7443.894043
653.960938	7413.087891
652.756836	7417.607910
651.552734	7544.649902
650.348633	7509.687988
649.144531	7667.785645
647.939453	7558.100586
646.735352	7543.905762
645.529297	7606.466309
644.324219	7679.366699
643.118164	7694.178711
641.912109	7584.611816
640.706055	7669.898926
639.499023	7579.034668
638.292969	7676.710938
637.084961	7484.409180
635.877930	7787.038086
634.669922	7824.567871
633.461914	7837.245117
632.253906	7957.505859
631.044922	7986.693848
629.836914	8146.157227
628.626953	8096.718262
627.417969	8039.033203
626.208008	8068.173340
624.998047	7896.881348
623.788086	7934.302246
622.577148	7711.489258
621.366211	7684.928223
620.155273	7497.367188
618.944336	7559.609375
617.732422	7419.619141
616.520508	7283.818359
615.308594	7209.950684
614.095703	7090.755371
612.882813	7006.658203
611.669922	6848.406738
610.457031	6898.332520
609.243164	6814.336914
608.029297	6720.082520
606.815430	6786.473633
605.600586	6414.367188
604.385742	6587.815918
603.170898	6586.290039
601.955078	6736.989746
600.740234	6681.957031
599.524414	6635.174316
598.307617	6563.744141
597.091797	6533.451172
595.875000	6562.758301
594.658203	6536.586426
593.440430	6621.330078
592.222656	6595.156250
591.004883	6577.205566
589.787109	6444.332031
588.568359	6609.039063
587.349609	6470.064453
586.130859	6480.870117
584.912109	6612.645996
583.692383	6539.364746
582.472656	6666.966309
581.251953	6759.674805
580.032227	6596.273926
578.811523	6801.598145
577.589844	6664.880859
576.369141	6814.821289
575.147461	6825.520996
573.925781	6793.245605
572.703125	6898.045898
571.481445	6978.254883
570.258789	6966.412598
569.035156	6917.778809
567.812500	7077.633301
566.588867	6926.830078
565.365234	7027.365234
564.140625	7009.395996
562.916992	7128.241699
561.692383	7165.375000
560.466797	7124.934570
559.242188	6972.287109
558.016602	7031.869141
556.791016	6840.562012
555.564453	7014.333008
554.337891	6863.889648
553.111328	6939.744629
551.884766	6844.403320
550.657227	6855.038086
549.429688	6857.520508
548.202148	6951.630859
546.974609	6831.944824
545.746094	6873.100098
544.517578	7024.114258
543.288086	7018.415527
542.058594	7079.835938
540.829102	6927.722656
539.599609	7131.437988
538.370117	7105.393555
537.139648	7126.095703
535.909180	7035.056152
534.677734	7055.764160
533.446289	7149.562012
532.214844	6950.984863
530.983398	6961.548828
529.750977	6888.912598
528.519531	6820.367676
527.286133	6873.545410
526.053711	6890.199219
524.820313	6675.737793
523.586914	6781.607422
522.353516	6761.795898
521.119141	6936.474121
519.884766	6902.457520
518.650391	6795.560059
517.415039	6715.029785
516.179688	6810.620605
514.944336	6728.099609
513.708984	6603.133301
