#Wave		#Intensity
2109.224609	10284.370117
2107.712891	10249.636719
2106.201172	10249.073242
2104.687500	10351.012695
2103.175781	10312.411133
2101.662109	10287.046875
2100.150391	10273.259766
2098.636719	10279.299805
2097.123047	10158.174805
2095.607422	10151.028320
2094.093750	10200.010742
2092.578125	10113.639648
2091.064453	10226.960938
2089.548828	10269.296875
2088.033203	10227.499023
2086.517578	10187.368164
2085.000000	10208.253906
2083.484375	10120.344727
2081.966797	10119.812500
2080.449219	10239.552734
2078.931641	10202.756836
2077.414063	10240.084961
2075.894531	10208.245117
2074.376953	10227.448242
2072.857422	10182.458008
2071.337891	10180.268555
2069.818359	10319.556641
2068.298828	10187.405273
2066.777344	10139.173828
2065.257813	10048.218750
2063.736328	10309.046875
2062.214844	10152.362305
2060.693359	10237.258789
2059.171875	10210.421875
2057.648438	10096.558594
2056.126953	10179.770508
2054.603516	10205.493164
2053.080078	10272.234375
2051.556641	10219.166016
2050.033203	10105.421875
2048.507813	10137.699219
2046.984375	10125.687500
2045.458984	10143.191406
2043.933594	10042.673828
2042.408203	10035.607422
2040.882813	10311.983398
2039.355469	10208.217773
2037.830078	10070.105469
2036.302734	10089.236328
2034.775391	10090.351563
2033.248047	9991.631836
2031.718750	10190.757813
2030.191406	9931.737305
2028.662109	10029.384766
2027.134766	9902.962891
2025.605469	9913.925781
2024.076172	10024.590820
2022.544922	10053.499023
2021.015625	10079.126953
2019.484375	10036.136719
2017.955078	9980.100586
2016.423828	10121.655273
2014.892578	10054.198242
2013.359375	10102.647461
2011.828125	9992.796875
2010.294922	10013.503906
2008.761719	10195.676758
2007.230469	9984.773438
2005.695313	9928.842773
2004.162109	10065.276367
2002.628906	10014.241211
2001.093750	10085.425781
1999.558594	9931.783203
1998.023438	10190.246094
1996.488281	9951.976563
1994.953125	10068.695313
1993.417969	9962.386719
1991.880859	10113.224609
1990.343750	9925.607422
1988.806641	9926.748047
1987.269531	9940.897461
1985.732422	9896.509766
1984.193359	9865.145508
1982.656250	9921.552734
1981.117188	9773.208984
1979.578125	9917.332031
1978.039063	10002.925781
1976.500000	10153.433594
1974.958984	9977.568359
1973.417969	10139.378906
1971.878906	9936.004883
1970.337891	9903.068359
1968.796875	9964.224609
1967.253906	9979.946289
1965.712891	10013.496094
1964.169922	10051.894531
1962.626953	9910.382813
1961.083984	10026.562500
1959.541016	10137.832031
1957.998047	9967.238281
1956.455078	9895.493164
1954.910156	9922.533203
1953.365234	9873.488281
1951.820313	9976.581055
1950.275391	10113.604492
1948.730469	9948.083984
1947.183594	10064.032227
1945.638672	10034.411133
1944.091797	9851.229492
1942.544922	10002.679688
1940.998047	9817.966797
1939.449219	10092.139648
1937.902344	10161.067383
1936.353516	9966.749023
1934.804688	9993.697266
1933.255859	9960.911133
1931.707031	9962.028320
1930.158203	9869.563477
1928.607422	9957.807617
1927.058594	9902.476563
1925.507813	9910.053711
1923.957031	9891.833984
1922.406250	10013.843750
1920.853516	10002.054688
1919.302734	9972.548828
1917.750000	9777.149414
1916.197266	9873.313477
1914.644531	9832.582031
1913.091797	9965.716797
1911.539063	9942.685547
1909.984375	10043.559570
1908.431641	9941.695313
1906.876953	10021.617188
1905.322266	9947.136719
1903.767578	9943.424805
1902.210938	9938.106445
1900.656250	9948.859375
1899.099609	9924.261719
1897.542969	9906.099609
1895.986328	10005.180664
1894.429688	9954.895508
1892.873047	9980.081055
1891.314453	10011.673828
1889.755859	9802.562500
1888.199219	9932.040039
1886.640625	9824.081055
1885.080078	9906.994141
1883.521484	9763.813477
1881.960938	9864.335938
1880.402344	9759.686523
1878.841797	9885.802734
1877.281250	9864.490234
1875.720703	9851.194336
1874.158203	9793.069336
1872.597656	9643.718750
1871.035156	9864.156250
1869.472656	9934.082031
1867.910156	9997.577148
1866.347656	9885.096680
1864.783203	9899.000000
1863.220703	9868.129883
1861.656250	9728.572266
1860.091797	9817.613281
1858.527344	9761.212891
1856.962891	9888.548828
1855.396484	9924.791992
1853.832031	9887.565430
1852.265625	9760.950195
1850.699219	9837.099609
1849.132813	9962.687500
1847.566406	9963.774414
1845.998047	9786.204102
1844.431641	9959.565430
1842.863281	9946.300781
1841.294922	9928.258789
1839.726563	9973.976563
1838.156250	9877.855469
1836.587891	9906.039063
1835.017578	9921.467773
1833.449219	9871.599609
1831.878906	9922.054688
1830.306641	9778.291016
1828.736328	9870.121094
1827.166016	10020.783203
1825.593750	9856.408203
1824.021484	9882.955078
1822.449219	9837.935547
1820.876953	9867.653320
1819.304688	9924.377930
1817.730469	9757.017578
1816.158203	10045.699219
1814.583984	9973.687500
1813.009766	9949.347656
1811.435547	9771.006836
1809.859375	9932.447266
1808.285156	9970.027344
1806.708984	9866.370117
1805.132813	9970.576172
1803.556641	9931.990234
1801.980469	9942.579102
1800.404297	9921.455078
1798.826172	10152.364258
1797.248047	10031.365234
1795.671875	9983.299805
1794.093750	10009.704102
1792.513672	10001.255859
1790.935547	10143.232422
1789.355469	10014.445313
1787.777344	10051.898438
1786.197266	10027.621094
1784.617188	10060.308594
1783.035156	10135.688477
1781.455078	10051.315430
1779.873047	10249.986328
1778.292969	10247.821289
1776.710938	10239.334961
1775.128906	10243.492188
1773.544922	10328.212891
1771.962891	10100.177734
1770.378906	10110.676758
1768.794922	10354.820313
1767.212891	10183.746094
1765.626953	10126.362305
1764.042969	10152.621094
1762.458984	10223.036133
1760.873047	10130.983398
1759.287109	10305.434570
1757.701172	10222.861328
1756.115234	10157.659180
1754.529297	10224.843750
1752.941406	10290.423828
1751.355469	10240.997070
1749.767578	10212.062500
1748.179688	10083.952148
1746.591797	10277.002930
1745.001953	10340.926758
1743.414063	10376.501953
1741.824219	10333.408203
1740.234375	10299.768555
1738.644531	10280.294922
1737.054688	10355.151367
1735.462891	10532.138672
1733.873047	10517.339844
1732.281250	10480.551758
1730.689453	10556.871094
1729.097656	10535.793945
1727.505859	10615.208008
1725.912109	10507.790039
1724.320313	10817.877930
1722.726563	10759.102539
1721.132813	10657.995117
1719.539063	10638.487305
1717.945313	10825.972656
1716.349609	10949.100586
1714.755859	10797.878906
1713.160156	10947.599609
1711.564453	10956.249023
1709.968750	11007.187500
1708.371094	10967.271484
1706.775391	11049.500000
1705.177734	11189.613281
1703.580078	11209.154297
1701.982422	11131.671875
1700.384766	11198.148438
1698.787109	11302.134766
1697.187500	11337.271484
1695.587891	11302.037109
1693.990234	11415.311523
1692.390625	11478.529297
1690.789063	11524.532227
1689.189453	11689.234375
1687.587891	11499.344727
1685.988281	11520.328125
1684.386719	11574.085938
1682.785156	11852.573242
1681.181641	11899.994141
1679.580078	12181.412109
1677.976563	12004.132813
1676.373047	12325.954102
1674.769531	12416.887695
1673.166016	12479.722656
1671.562500	12796.560547
1669.957031	12821.891602
1668.353516	12911.081055
1666.748047	13201.146484
1665.142578	13425.687500
1663.537109	13474.212891
1661.929688	13363.955078
1660.324219	13574.310547
1658.716797	13969.718750
1657.109375	14086.525391
1655.501953	14155.070313
1653.894531	14319.986328
1652.285156	14487.939453
1650.677734	14721.094727
1649.068359	14702.428711
1647.458984	14929.224609
1645.849609	15090.688477
1644.240234	15498.986328
1642.628906	15613.682617
1641.019531	15835.431641
1639.408203	16033.805664
1637.796875	16536.195313
1636.185547	16841.367188
1634.572266	17275.130859
1632.960938	17389.296875
1631.347656	17498.761719
1629.734375	17950.703125
1628.121094	18388.505859
1626.507813	18683.591797
1624.894531	18860.835938
1623.279297	19519.603516
1621.664063	19856.060547
1620.048828	20353.351563
1618.433594	20582.701172
1616.818359	21003.808594
1615.203125	21336.562500
1613.585938	21610.400391
1611.968750	21915.046875
1610.351563	22140.720703
1608.734375	22598.134766
1607.117188	23098.619141
1605.498047	23529.367188
1603.878906	24088.132813
1602.261719	24620.404297
1600.640625	24914.679688
1599.021484	25213.457031
1597.402344	25539.886719
1595.781250	25485.062500
1594.162109	25487.337891
1592.541016	25629.958984
1590.919922	25391.652344
1589.296875	25409.355469
1587.675781	25299.121094
1586.052734	25139.621094
1584.429688	24810.714844
1582.806641	25067.271484
1581.183594	24723.117188
1579.560547	24811.753906
1577.935547	24800.294922
1576.312500	25001.222656
1574.687500	24737.378906
1573.062500	24818.238281
1571.435547	25085.162109
1569.810547	25199.738281
1568.183594	25006.791016
1566.558594	24674.052734
1564.931641	24670.310547
1563.304688	24499.103516
1561.675781	24229.658203
1560.048828	24066.292969
1558.419922	23849.257813
1556.791016	24074.410156
1555.162109	24271.839844
1553.533203	24375.583984
1551.904297	24256.841797
1550.273438	24493.976563
1548.642578	24520.929688
1547.011719	24793.164063
1545.380859	24407.724609
1543.750000	24400.958984
1542.119141	24086.242188
1540.486328	23955.470703
1538.853516	23481.708984
1537.220703	23291.406250
1535.587891	22695.523438
1533.955078	22604.947266
1532.320313	22646.000000
1530.685547	22465.210938
1529.052734	22474.152344
1527.416016	22602.363281
1525.781250	22785.552734
1524.146484	22786.771484
1522.509766	23027.910156
1520.873047	23310.195313
1519.236328	23647.347656
1517.599609	24179.832031
1515.962891	24283.039063
1514.324219	24341.931641
1512.687500	24469.474609
1511.048828	24523.720703
1509.410156	23993.660156
1507.771484	23587.365234
1506.130859	23210.218750
1504.492188	22970.441406
1502.851563	22604.253906
1501.210938	22104.119141
1499.570313	22096.312500
1497.927734	21652.859375
1496.287109	21721.292969
1494.644531	21297.902344
1493.001953	21300.923828
1491.359375	20687.560547
1489.716797	20613.105469
1488.074219	20381.992188
1486.429688	20125.119141
1484.785156	20079.720703
1483.140625	19870.148438
1481.496094	19627.226563
1479.851563	19355.535156
1478.207031	19264.755859
1476.560547	19040.345703
1474.914063	19338.443359
1473.267578	18959.242188
1471.621094	19188.916016
1469.972656	18858.470703
1468.326172	18516.029297
1466.677734	18628.835938
1465.029297	18347.255859
1463.380859	18311.445313
1461.732422	18187.718750
1460.082031	18203.488281
1458.431641	18395.031250
1456.783203	18119.857422
1455.132813	18081.097656
1453.480469	18139.271484
1451.830078	17993.021484
1450.177734	18101.140625
1448.527344	17662.873047
1446.875000	17833.048828
1445.220703	17841.287109
1443.568359	17843.468750
1441.916016	17464.603516
1440.261719	17729.908203
1438.607422	18078.226563
1436.953125	18083.371094
1435.298828	18241.099609
1433.642578	18293.027344
1431.988281	17964.380859
1430.332031	17912.166016
1428.675781	17876.578125
1427.019531	17640.289063
1425.361328	17292.447266
1423.705078	17243.435547
1422.046875	17057.201172
1420.388672	16940.406250
1418.730469	16805.570313
1417.072266	16642.156250
1415.412109	16760.589844
1413.753906	16561.097656
1412.093750	16744.259766
1410.433594	16624.664063
1408.773438	16833.324219
1407.111328	16974.158203
1405.451172	17250.369141
1403.789063	17552.033203
1402.126953	17790.388672
1400.464844	17733.875000
1398.802734	18087.857422
1397.138672	18046.333984
1395.474609	17979.275391
1393.812500	18085.042969
1392.146484	17993.966797
1390.482422	18032.093750
1388.818359	18233.876953
1387.152344	18115.800781
1385.486328	18362.501953
1383.820313	18463.533203
1382.154297	18612.529297
1380.488281	18938.453125
1378.820313	19103.773438
1377.154297	19325.992188
1375.486328	19618.562500
1373.818359	19804.601563
1372.148438	19720.859375
1370.480469	19827.394531
1368.810547	19499.562500
1367.140625	19510.267578
1365.470703	19540.427734
1363.800781	19353.554688
1362.130859	19051.541016
1360.458984	18863.357422
1358.787109	19221.181641
1357.115234	19139.210938
1355.443359	19123.054688
1353.771484	19395.384766
1352.097656	19482.289063
1350.423828	19800.730469
1348.751953	19984.595703
1347.076172	20452.125000
1345.402344	21076.220703
1343.728516	21525.388672
1342.052734	21696.765625
1340.376953	22197.818359
1338.701172	22389.855469
1337.025391	22950.189453
1335.347656	22948.126953
1333.671875	23278.507813
1331.994141	23198.865234
1330.316406	23335.326172
1328.638672	23117.150391
1326.960938	22982.480469
1325.281250	22977.423828
1323.601563	22708.845703
1321.921875	22394.240234
1320.242188	21910.123047
1318.562500	21612.193359
1316.880859	21440.832031
1315.201172	20774.314453
1313.519531	20558.603516
1311.837891	20227.037109
1310.154297	19818.332031
1308.472656	19599.996094
1306.789063	19326.791016
1305.105469	19029.939453
1303.421875	18546.123047
1301.738281	18470.771484
1300.054688	18006.582031
1298.369141	17925.443359
1296.683594	17682.628906
1294.998047	17622.357422
1293.312500	17523.556641
1291.626953	17298.777344
1289.939453	17137.832031
1288.253906	17222.957031
1286.566406	17236.925781
1284.878906	17382.720703
1283.189453	17347.773438
1281.501953	17370.582031
1279.812500	17388.941406
1278.123047	17442.806641
1276.433594	17548.435547
1274.744141	17594.843750
1273.052734	17466.708984
1271.363281	17343.066406
1269.671875	16926.769531
1267.980469	16872.763672
1266.289063	16679.878906
1264.595703	16560.945313
1262.904297	16354.917969
1261.210938	16106.158203
1259.517578	15875.223633
1257.824219	15684.242188
1256.128906	15797.337891
1254.435547	15579.898438
1252.740234	15397.955078
1251.044922	15376.834961
1249.349609	15500.212891
1247.652344	15501.187500
1245.957031	15735.008789
1244.259766	15892.108398
1242.562500	15947.494141
1240.865234	15964.561523
1239.167969	15797.568359
1237.468750	15710.140625
1235.769531	15780.228516
1234.072266	15713.440430
1232.371094	15520.165039
1230.671875	15406.396484
1228.972656	15217.683594
1227.271484	14790.894531
1225.570313	14555.367188
1223.869141	14525.667969
1222.167969	14200.684570
1220.464844	14128.480469
1218.763672	14059.243164
1217.060547	14067.847656
1215.357422	13859.208984
1213.654297	13889.864258
1211.949219	13753.247070
1210.246094	13700.299805
1208.541016	13651.773438
1206.835938	13613.531250
1205.130859	13466.831055
1203.423828	13433.041016
1201.718750	13443.220703
1200.011719	13511.990234
1198.304688	13267.313477
1196.597656	13472.260742
1194.888672	13570.250000
1193.181641	13581.844727
1191.472656	13649.035156
1189.763672	13624.031250
1188.054688	13803.797852
1186.343750	13595.986328
1184.634766	13696.732422
1182.923828	13660.041016
1181.212891	13449.475586
1179.501953	13335.423828
1177.791016	13322.205078
1176.078125	13386.384766
1174.365234	13524.992188
1172.652344	13427.077148
1170.939453	13513.075195
1169.226563	13597.575195
1167.511719	13728.711914
1165.798828	13734.373047
1164.083984	13585.484375
1162.369141	13390.015625
1160.652344	13223.781250
1158.937500	13050.333984
1157.220703	12925.034180
1155.503906	13114.360352
1153.787109	12802.729492
1152.070313	12674.655273
1150.351563	12584.476563
1148.632813	12520.527344
1146.916016	12459.514648
1145.195313	12551.238281
1143.476563	12599.297852
1141.757813	12788.344727
1140.037109	12472.978516
1138.316406	12532.643555
1136.595703	12364.201172
1134.875000	12191.476563
1133.152344	12119.022461
1131.429688	11628.496094
1129.708984	11731.820313
1127.984375	11573.900391
1126.261719	11498.744141
1124.539063	11369.955078
1122.814453	11315.178711
1121.089844	11192.285156
1119.365234	11208.594727
1117.640625	11023.466797
1115.914063	10916.656250
1114.187500	10983.709961
1112.462891	10868.265625
1110.734375	10658.765625
1109.007813	10743.198242
1107.281250	10590.257813
1105.552734	10569.046875
1103.824219	10647.652344
1102.095703	10400.833984
1100.367188	10489.560547
1098.636719	10355.637695
1096.908203	10450.113281
1095.177734	10439.070313
1093.447266	10393.363281
1091.714844	10441.547852
1089.984375	10306.338867
1088.251953	10481.550781
1086.519531	10451.746094
1084.787109	10391.653320
1083.054688	10197.428711
1081.320313	10322.024414
1079.585938	10152.414063
1077.851563	10176.050781
1076.117188	10309.210938
1074.382813	10191.588867
1072.648438	10242.569336
1070.912109	10119.252930
1069.175781	10186.063477
1067.439453	10107.441406
1065.701172	10054.762695
1063.964844	10069.736328
1062.226563	9916.383789
1060.488281	9863.781250
1058.750000	9861.529297
1057.011719	9831.962891
1055.271484	9628.495117
1053.531250	9726.883789
1051.791016	9796.494141
1050.050781	9873.252930
1048.310547	9820.736328
1046.568359	9798.391602
1044.826172	9840.646484
1043.083984	9898.666016
1041.341797	9806.016602
1039.599609	9777.954102
1037.855469	9963.573242
1036.113281	9938.353516
1034.369141	9921.744141
1032.623047	9860.716797
1030.878906	9640.686523
1029.132813	9856.199219
1027.386719	9816.706055
1025.640625	9797.275391
1023.894531	9823.656250
1022.148438	9821.403320
1020.400391	9893.548828
1018.652344	9755.389648
1016.904297	9814.644531
1015.156250	9780.936523
1013.406250	9901.622070
1011.658203	9850.758789
1009.908203	9745.624023
1008.158203	9694.818359
1006.408203	9786.845703
1004.656250	9788.878906
1002.904297	9933.656250
1001.152344	9842.889648
999.400391	9896.271484
997.648438	9972.450195
995.896484	9662.108398
994.142578	9684.124023
992.388672	9512.261719
990.634766	9768.024414
988.878906	9680.285156
987.125000	9678.054688
985.369141	9556.194336
983.613281	9600.978516
981.857422	9527.589844
980.099609	9263.526367
978.343750	9311.190430
976.585938	9432.802734
974.828125	9355.249023
973.070313	9239.340820
971.310547	9231.521484
969.552734	9213.756836
967.792969	9340.930664
966.033203	9389.913086
964.273438	9474.377930
962.511719	9519.045898
960.750000	9702.809570
958.990234	9875.134766
957.226563	9818.932617
955.464844	9683.313477
953.703125	9685.329102
951.939453	9467.561523
950.175781	9471.041016
948.412109	9324.286133
946.648438	9281.036133
944.882813	9271.803711
943.117188	9177.596680
941.351563	9108.919922
939.585938	9162.019531
937.820313	8978.736328
936.052734	8938.450195
934.285156	8919.402344
932.517578	8833.888672
930.750000	9042.525391
928.982422	9139.383789
927.212891	9015.715820
925.443359	9051.774414
923.673828	9251.687500
921.904297	9207.168945
920.132813	9155.609375
918.361328	9061.721680
916.591797	9004.573242
914.818359	9098.431641
913.046875	9151.334961
911.275391	9040.607422
909.501953	9110.418945
907.728516	8940.541016
905.955078	8968.058594
904.179688	8918.063477
902.406250	8773.704102
900.630859	9020.953125
898.855469	8879.452148
897.080078	8823.888672
895.302734	8866.872070
893.525391	8780.379883
891.750000	8833.198242
889.970703	8898.650391
888.193359	8786.897461
886.416016	8907.154297
884.636719	8916.321289
882.857422	8907.215820
881.078125	8957.116211
879.296875	8939.577148
877.517578	8938.895508
875.736328	8846.962891
873.955078	8714.372070
872.173828	8751.625977
870.390625	8617.714844
868.609375	8810.652344
866.826172	8738.484375
865.042969	8607.469727
863.259766	8640.497070
861.474609	8541.793945
859.689453	8727.514648
857.904297	8509.788086
856.119141	8635.218750
854.333984	8511.407227
852.546875	8449.234375
850.761719	8545.204102
848.974609	8592.166016
847.185547	8566.377930
845.398438	8474.883789
843.609375	8513.438477
841.822266	8511.444336
840.031250	8614.247070
838.242188	8609.434570
836.453125	8759.648438
834.662109	8765.973633
832.871094	8837.904297
831.080078	8749.301758
829.289063	8716.552734
827.496094	8724.273438
825.703125	8572.997070
823.910156	8607.238281
822.117188	8509.031250
820.324219	8441.531250
818.529297	8496.676758
816.734375	8529.506836
814.939453	8633.348633
813.144531	8450.311523
811.347656	8487.303711
809.550781	8272.375977
807.755859	8225.907227
805.957031	8325.521484
804.160156	8395.881836
802.361328	8267.380859
800.564453	8172.300293
798.765625	8309.353516
796.964844	8126.772461
795.166016	8315.166992
793.365234	8278.491211
791.564453	8440.378906
789.763672	8324.565430
787.962891	8201.867188
786.160156	8365.043945
784.359375	8069.000000
782.556641	8168.336426
780.751953	8084.608887
778.949219	8045.277344
777.144531	7996.262207
775.339844	8101.061523
773.535156	8017.425781
771.730469	8057.080566
769.925781	7908.419922
768.119141	7996.527344
766.312500	8119.189453
764.505859	8209.971680
762.697266	8231.547852
760.890625	8276.624023
759.082031	8437.812500
757.273438	8388.824219
755.464844	8630.059570
753.654297	8672.232422
751.845703	8728.196289
750.035156	8926.370117
748.224609	9203.143555
746.412109	9656.461914
744.601563	9851.513672
742.789063	10504.508789
740.976563	11617.882813
739.164063	13531.915039
737.349609	16594.837891
735.537109	20000.890625
733.722656	23041.537109
731.908203	23959.126953
730.091797	22264.828125
728.277344	19067.621094
726.460938	15741.140625
724.644531	12935.124023
722.828125	10874.875977
721.009766	9828.129883
719.193359	9085.840820
717.375000	8726.170898
715.556641	8522.016602
713.736328	8557.106445
711.917969	8174.456055
710.097656	8158.780762
708.277344	8084.054199
706.457031	8035.451660
704.636719	8033.546387
702.814453	8053.600586
700.992188	8120.296875
699.169922	8019.600098
697.347656	8119.187500
695.523438	8169.364746
693.699219	8292.171875
691.875000	8360.099609
690.050781	8484.171875
688.226563	8462.979492
686.400391	8451.383789
684.574219	8478.129883
682.748047	8299.530273
680.921875	8371.460938
679.095703	8465.248047
677.267578	8476.916016
675.439453	8365.495117
673.611328	8411.361328
671.781250	8402.527344
669.953125	8334.932617
668.123047	8274.201172
666.292969	8176.616699
664.460938	8331.719727
662.630859	8310.624023
660.798828	8281.347656
658.966797	8286.201172
657.134766	8377.004883
655.302734	8470.492188
653.468750	8442.566406
651.634766	8347.848633
649.800781	8561.220703
647.966797	8568.721680
646.130859	8589.842773
644.294922	8459.763672
642.458984	8430.514648
640.623047	8224.294922
638.787109	8348.916992
636.949219	8341.485352
635.111328	8440.170898
633.273438	8450.400391
631.435547	8447.027344
629.595703	8575.523438
627.757813	8505.522461
625.917969	8502.136719
624.076172	8650.902344
622.236328	8696.375977
620.394531	8417.301758
618.552734	8232.029297
616.710938	8110.632324
614.869141	8089.701660
613.025391	7956.186523
611.183594	7999.043945
609.339844	7819.512207
607.494141	7809.512695
605.650391	7666.702637
603.804688	7738.039551
601.958984	7719.937500
600.113281	7810.186523
598.267578	7801.552734
596.419922	7922.871582
594.572266	7860.081055
592.724609	7921.794922
590.876953	8002.416504
589.027344	7980.220215
587.179688	7941.809570
585.330078	7919.637207
583.480469	7778.553223
581.628906	7721.301758
579.779297	7627.607422
577.927734	7644.690918
576.076172	7499.754395
574.222656	7577.598633
572.371094	7569.040527
570.517578	7573.977539
568.664063	7786.626465
566.810547	7779.371094
564.955078	7924.460938
563.101563	7818.783203
561.246094	7822.303711
559.390625	7917.431152
557.533203	7788.932617
555.677734	7752.060059
553.820313	7579.235840
551.962891	7551.851074
550.105469	7447.780762
548.246094	7335.687988
546.386719	7493.980957
544.527344	7320.077637
542.667969	7408.394043
540.808594	7428.125000
538.947266	7379.319824
537.085938	7499.796875
535.224609	7491.287109
533.363281	7379.394531
531.500000	7274.266602
529.638672	7400.019531
527.775391	7343.237793
525.910156	7384.404785
524.046875	7492.605957
522.181641	7729.466797
520.316406	8190.067383
518.451172	8169.344727
516.585938	7604.675293
514.718750	7454.172852
512.851563	7262.228027
510.984375	7232.373535
509.117188	7178.439941
507.250000	7156.647949
505.380859	7215.138184
503.511719	7094.368164
501.642578	7096.680664
499.771484	7021.451172
497.902344	6972.988770
496.031250	6855.062988
494.160156	6844.069336
492.287109	6934.588379
490.416016	6895.538574
488.542969	6952.625977
486.669922	6880.223145
484.796875	6758.482910
482.921875	6898.270996
481.046875	6763.247070
479.171875	6798.961914
477.296875	6873.317871
475.421875	6775.712891
473.544922	6826.054199
471.667969	6857.721191
469.791016	6931.990234
467.914063	6777.209473
466.035156	6923.343750
464.156250	6988.226563
462.277344	7130.247559
460.398438	6942.311035
458.519531	7105.552734
456.638672	6994.825684
454.757813	7007.770996
452.876953	6987.486328
450.994141	6976.511719
449.113281	6968.198242
447.230469	6853.650391
445.347656	7028.585449
443.462891	6987.081055
441.580078	6892.515137
439.695313	6779.420898
437.810547	6874.621582
435.925781	6894.190918
434.039063	6891.212891
432.152344	6941.252930
430.267578	6820.329102
428.378906	6915.404297
426.492188	6846.198730
424.603516	6782.322754
422.714844	6768.782715
420.826172	6780.395508
418.937500	6827.729004
417.046875	6799.634766
415.158203	6816.520996
413.265625	6779.186523
411.375000	6875.385254
409.484375	6843.340332
407.591797	6784.884277
405.699219	6721.171875
403.806641	6788.235840
401.912109	6695.504883
400.019531	6762.542480
