#Wave		#Intensity
2109.224609	6617.523926
2107.712891	6557.980957
2106.201172	6541.680176
2104.687500	6604.742676
2103.175781	6542.158203
2101.662109	6530.829102
2100.150391	6545.939941
2098.636719	6551.133301
2097.123047	6559.627441
2095.607422	6564.815918
2094.093750	6523.781250
2092.578125	6489.365723
2091.064453	6413.713867
2089.548828	6308.400391
2088.033203	6504.959961
2086.517578	6386.480469
2085.000000	6419.725586
2083.484375	6426.583496
2081.966797	6298.310547
2080.449219	6397.455078
2078.931641	6290.656738
2077.414063	6200.373047
2075.894531	6268.191406
2074.376953	6284.950684
2072.857422	6364.242188
2071.337891	6191.749023
2069.818359	6226.609375
2068.298828	6325.599121
2066.777344	6292.997070
2065.257813	6245.612793
2063.736328	6249.202148
2062.214844	6154.191406
2060.693359	6192.301270
2059.171875	6305.954102
2057.648438	6179.790039
2056.126953	6191.599121
2054.603516	6305.179199
2053.080078	6200.431641
2051.556641	6213.869629
2050.033203	6233.864258
2048.507813	6148.880859
2046.984375	6262.348633
2045.458984	6220.020996
2043.933594	6215.410156
2042.408203	6251.770020
2040.882813	6188.172852
2039.355469	6321.166992
2037.830078	6106.915527
2036.302734	6066.312988
2034.775391	6295.829102
2033.248047	6211.014160
2031.718750	6245.684082
2030.191406	6087.299316
2028.662109	6123.616211
2027.134766	6204.069336
2025.605469	6170.045898
2024.076172	6191.610840
2022.544922	6214.800781
2021.015625	6097.471191
2019.484375	6081.467773
2017.955078	6186.323242
2016.423828	6096.832031
2014.892578	6092.266113
2013.359375	6143.192871
2011.828125	6256.104004
2010.294922	6083.473145
2008.761719	6295.842773
2007.230469	6209.703613
2005.695313	6210.010254
2004.162109	6164.676270
2002.628906	6212.251953
2001.093750	6168.565918
1999.558594	6186.799316
1998.023438	6045.419922
1996.488281	6189.048340
1994.953125	6169.822754
1993.417969	6124.564453
1991.880859	6162.313965
1990.343750	6157.748535
1988.806641	6106.015137
1987.269531	6207.165527
1985.732422	5983.104492
1984.193359	6228.907227
1982.656250	6160.950684
1981.117188	6148.266602
1979.578125	6143.710449
1978.039063	6230.105957
1976.500000	6233.652832
1974.958984	6194.989258
1973.417969	6161.210938
1971.878906	6177.751465
1970.337891	6158.592285
1968.796875	6225.409668
1967.253906	6181.922852
1965.712891	6219.522461
1964.169922	6072.310547
1962.626953	6152.054199
1961.083984	6239.866211
1959.541016	6165.642090
1957.998047	6106.026367
1956.455078	6187.314453
1954.910156	6253.997070
1953.365234	6202.493164
1951.820313	6181.757813
1950.275391	6198.243652
1948.730469	6127.373047
1947.183594	6151.949219
1945.638672	6103.754395
1944.091797	6201.069336
1942.544922	6270.867676
1940.998047	6161.275391
1939.449219	6105.041504
1937.902344	6071.443848
1936.353516	6205.803223
1934.804688	6204.487793
1933.255859	6196.716309
1931.707031	6109.871582
1930.158203	6148.914063
1928.607422	6078.247070
1927.058594	6091.474609
1925.507813	6083.734375
1923.957031	6217.862305
1922.406250	6135.957520
1920.853516	6070.201660
1919.302734	5972.251953
1917.750000	6120.785645
1916.197266	5952.008789
1914.644531	6126.244629
1913.091797	6036.414063
1911.539063	5993.292480
1909.984375	6037.077148
1908.431641	6024.538574
1906.876953	6118.156250
1905.322266	6026.813477
1903.767578	6004.638672
1902.210938	6069.268555
1900.656250	6043.879883
1899.099609	6084.374512
1897.542969	6081.480957
1895.986328	6089.830566
1894.429688	6016.289551
1892.873047	5981.306152
1891.314453	6076.338379
1889.755859	5975.567871
1888.199219	6041.683594
1886.640625	6083.712402
1885.080078	5965.363770
1883.521484	6129.237793
1881.960938	6052.605469
1880.402344	5987.223145
1878.841797	6184.634766
1877.281250	6056.777832
1875.720703	6058.700684
1874.158203	6020.592285
1872.597656	6054.539551
1871.035156	6008.444824
1869.472656	6082.384766
1867.910156	6041.102539
1866.347656	5935.856934
1864.783203	6049.744629
1863.220703	6062.855957
1861.656250	6051.983887
1860.091797	5978.787598
1858.527344	6038.242188
1856.962891	6118.439453
1855.396484	6074.023438
1853.832031	5967.349609
1852.265625	5969.282227
1850.699219	6087.732910
1849.132813	6137.513184
1847.566406	6066.016113
1845.998047	5878.103027
1844.431641	6034.747559
1842.863281	6082.901367
1841.294922	6009.880859
1839.726563	6000.642578
1838.156250	5991.408203
1836.587891	5998.108398
1835.017578	6089.223145
1833.449219	5966.911133
1831.878906	6019.783203
1830.306641	5918.229980
1828.736328	6020.423828
1827.166016	6017.561523
1825.593750	5973.339844
1824.021484	5959.354980
1822.449219	5981.948242
1820.876953	6004.531250
1819.304688	5857.036133
1817.730469	5940.020996
1816.158203	5949.888184
1814.583984	5954.985352
1813.009766	5871.147461
1811.435547	6055.674316
1809.859375	6141.703613
1808.285156	5784.900879
1806.708984	5969.328125
1805.132813	5925.234863
1803.556641	5958.876953
1801.980469	5946.518555
1800.404297	5915.140137
1798.826172	5996.314453
1797.248047	6001.387207
1795.671875	5996.951172
1794.093750	5984.596191
1792.513672	6007.088379
1790.935547	6046.987793
1789.355469	6044.127441
1787.777344	5993.786621
1786.197266	6032.080566
1784.617188	5891.584961
1783.035156	6039.022949
1781.455078	5957.096191
1779.873047	6044.376953
1778.292969	5932.449707
1776.710938	5973.867188
1775.128906	5904.662598
1773.544922	6042.430664
1771.962891	5946.391113
1770.378906	6000.401367
1768.794922	6025.972168
1767.212891	5929.995605
1765.626953	6086.547852
1764.042969	6031.619629
1762.458984	5923.082520
1760.873047	5964.411621
1759.287109	6038.833496
1757.701172	6083.272461
1756.115234	5930.685547
1754.529297	5959.371094
1752.941406	6073.114746
1751.355469	5978.902832
1749.767578	6059.524414
1748.179688	5982.672852
1746.591797	5992.426270
1745.001953	6036.797363
1743.414063	5939.544434
1741.824219	5938.288574
1740.234375	5949.614746
1738.644531	6140.188477
1737.054688	6063.431152
1735.462891	6110.872070
1733.873047	6064.009277
1732.281250	6058.013672
1730.689453	6092.858887
1729.097656	5871.714355
1727.505859	6003.927734
1725.912109	5996.378418
1724.320313	6029.636719
1722.726563	6097.399902
1721.132813	6103.953125
1719.539063	6135.598145
1717.945313	6113.914551
1716.349609	6064.020508
1714.755859	6123.866211
1713.160156	6249.502930
1711.564453	6209.011230
1709.968750	6163.837402
1708.371094	6243.968262
1706.775391	6263.000977
1705.177734	6302.375488
1703.580078	6114.795410
1701.982422	6124.453613
1700.384766	6195.120117
1698.787109	6246.986816
1697.187500	6369.200684
1695.587891	6219.325195
1693.990234	6339.929199
1692.390625	6357.339355
1690.789063	6243.496582
1689.189453	6378.076660
1687.587891	6314.253418
1685.988281	6244.211426
1684.386719	6252.254395
1682.785156	6358.623047
1681.181641	6380.681641
1679.580078	6410.530762
1677.976563	6348.339355
1676.373047	6448.357910
1674.769531	6568.602051
1673.166016	6543.826660
1671.562500	6529.970703
1669.957031	6573.770996
1668.353516	6615.994629
1666.748047	6720.498535
1665.142578	6734.644043
1663.537109	6790.816406
1661.929688	6811.165527
1660.324219	6901.532227
1658.716797	6923.404297
1657.109375	7079.038574
1655.501953	7279.706055
1653.894531	7276.605469
1652.285156	7318.585449
1650.677734	7343.451660
1649.068359	7481.736816
1647.458984	7518.984863
1645.849609	7604.365234
1644.240234	7688.155762
1642.628906	7736.202148
1641.019531	7733.004883
1639.408203	7889.650391
1637.796875	7731.268555
1636.185547	7954.548340
1634.572266	7938.898438
1632.960938	7946.513184
1631.347656	7853.360352
1629.734375	7915.234375
1628.121094	8124.289063
1626.507813	8196.922852
1624.894531	8091.402344
1623.279297	8255.375977
1621.664063	8112.729004
1620.048828	8306.037109
1618.433594	8390.932617
1616.818359	8205.023438
1615.203125	8331.669922
1613.585938	8551.056641
1611.968750	8615.723633
1610.351563	8564.417969
1608.734375	8905.714844
1607.117188	9002.712891
1605.498047	9226.354492
1603.878906	9133.255859
1602.261719	9285.736328
1600.640625	9326.986328
1599.021484	9272.513672
1597.402344	9372.392578
1595.781250	9226.898438
1594.162109	9406.959961
1592.541016	9408.037109
1590.919922	9319.678711
1589.296875	9083.359375
1587.675781	9116.870117
1586.052734	9256.694336
1584.429688	9220.822266
1582.806641	9237.336914
1581.183594	9239.983398
1579.560547	9037.852539
1577.935547	8885.066406
1576.312500	8900.096680
1574.687500	8988.976563
1573.062500	9048.588867
1571.435547	9128.168945
1569.810547	9113.916016
1568.183594	9048.934570
1566.558594	9007.036133
1564.931641	8948.250977
1563.304688	8725.097656
1561.675781	8952.101563
1560.048828	8819.649414
1558.419922	8960.552734
1556.791016	8897.231445
1555.162109	9157.765625
1553.533203	9300.039063
1551.904297	9305.716797
1550.273438	9339.000000
1548.642578	9577.745117
1547.011719	9638.549805
1545.380859	9625.753906
1543.750000	9513.355469
1542.119141	9263.114258
1540.486328	9472.513672
1538.853516	9320.399414
1537.220703	9180.599609
1535.587891	8973.502930
1533.955078	8794.043945
1532.320313	8721.770508
1530.685547	8865.229492
1529.052734	8737.909180
1527.416016	8745.207031
1525.781250	8784.607422
1524.146484	8781.191406
1522.509766	8646.354492
1520.873047	8852.282227
1519.236328	8761.784180
1517.599609	8766.009766
1515.962891	8698.470703
1514.324219	8904.207031
1512.687500	8841.244141
1511.048828	8747.791016
1509.410156	8892.360352
1507.771484	8867.568359
1506.130859	8643.027344
1504.492188	8603.052734
1502.851563	8680.459961
1501.210938	8683.163086
1499.570313	8684.339844
1497.927734	8763.201172
1496.287109	8642.525391
1494.644531	8663.501953
1493.001953	8600.744141
1491.359375	8557.797852
1489.716797	8569.647461
1488.074219	8551.065430
1486.429688	8429.066406
1484.785156	8573.226563
1483.140625	8566.816406
1481.496094	8373.452148
1479.851563	8519.048828
1478.207031	8559.750977
1476.560547	8503.218750
1474.914063	8531.755859
1473.267578	8373.525391
1471.621094	8344.392578
1469.972656	8372.942383
1468.326172	8368.098633
1466.677734	8639.350586
1465.029297	8684.499023
1463.380859	8984.375000
1461.732422	9140.097656
1460.082031	9339.708008
1458.431641	9487.708008
1456.783203	9818.962891
1455.132813	9745.646484
1453.480469	9819.254883
1451.830078	9835.296875
1450.177734	9766.563477
1448.527344	9408.798828
1446.875000	8992.178711
1445.220703	8808.700195
1443.568359	8643.450195
1441.916016	8330.085938
1440.261719	8110.586426
1438.607422	7936.523926
1436.953125	7954.446777
1435.298828	7689.845703
1433.642578	7570.361816
1431.988281	7472.070801
1430.332031	7361.743652
1428.675781	7289.200195
1427.019531	7184.995605
1425.361328	7156.275879
1423.705078	7056.669922
1422.046875	6999.334473
1420.388672	6973.687500
1418.730469	7076.188477
1417.072266	7097.257324
1415.412109	7058.042480
1413.753906	7104.715332
1412.093750	7062.501953
1410.433594	7179.927734
1408.773438	7345.478516
1407.111328	7482.357422
1405.451172	7819.324219
1403.789063	8035.780273
1402.126953	8324.343750
1400.464844	8490.964844
1398.802734	8640.973633
1397.138672	8685.690430
1395.474609	8566.569336
1393.812500	8650.347656
1392.146484	8585.366211
1390.482422	8484.366211
1388.818359	8386.412109
1387.152344	8270.485352
1385.486328	8514.833008
1383.820313	8604.510742
1382.154297	8902.688477
1380.488281	9073.238281
1378.820313	9348.686523
1377.154297	9478.582031
1375.486328	9732.833984
1373.818359	9813.130859
1372.148438	9731.574219
1370.480469	9620.091797
1368.810547	9475.708984
1367.140625	9376.307617
1365.470703	9263.476563
1363.800781	9054.907227
1362.130859	8906.281250
1360.458984	8802.600586
1358.787109	8963.703125
1357.115234	8924.354492
1355.443359	9073.397461
1353.771484	9207.426758
1352.097656	9459.453125
1350.423828	9865.254883
1348.751953	10099.099609
1347.076172	10721.125000
1345.402344	11368.258789
1343.728516	11846.426758
1342.052734	12139.324219
1340.376953	12893.147461
1338.701172	13145.406250
1337.025391	13719.703125
1335.347656	14049.204102
1333.671875	14120.654297
1331.994141	14147.358398
1330.316406	14038.448242
1328.638672	13960.870117
1326.960938	13692.672852
1325.281250	13382.897461
1323.601563	13117.919922
1321.921875	12998.929688
1320.242188	12932.076172
1318.562500	12450.147461
1316.880859	12130.566406
1315.201172	11985.124023
1313.519531	11795.139648
1311.837891	11397.125977
1310.154297	11195.462891
1308.472656	10857.188477
1306.789063	10581.455078
1305.105469	9985.038086
1303.421875	9927.893555
1301.738281	9511.511719
1300.054688	9317.946289
1298.369141	9195.693359
1296.683594	8991.896484
1294.998047	8580.535156
1293.312500	8531.185547
1291.626953	8314.325195
1289.939453	8318.415039
1288.253906	8110.587402
1286.566406	8117.682617
1284.878906	8047.747559
1283.189453	7963.033203
1281.501953	7940.541992
1279.812500	7965.428711
1278.123047	7932.584961
1276.433594	8018.125977
1274.744141	8035.580078
1273.052734	8066.336426
1271.363281	7977.307617
1269.671875	8025.801758
1267.980469	8000.373535
1266.289063	7889.251465
1264.595703	7849.089844
1262.904297	7721.801758
1261.210938	7579.802734
1259.517578	7433.437012
1257.824219	7381.601074
1256.128906	7225.013184
1254.435547	7151.114258
1252.740234	7002.020508
1251.044922	6942.950195
1249.349609	6928.136719
1247.652344	6780.664063
1245.957031	6726.101074
1244.259766	6930.880371
1242.562500	6777.611328
1240.865234	6777.575195
1239.167969	6752.506836
1237.468750	6636.180176
1235.769531	6702.402344
1234.072266	6527.279785
1232.371094	6714.126465
1230.671875	6618.499512
1228.972656	6692.016602
1227.271484	6519.989746
1225.570313	6477.380859
1223.869141	6564.103027
1222.167969	6539.131836
1220.464844	6471.575195
1218.763672	6351.183105
1217.060547	6340.955566
1215.357422	6332.199707
1213.654297	6223.657227
1211.949219	6374.851563
1210.246094	6254.611816
1208.541016	6237.081543
1206.835938	6272.340820
1205.130859	6180.054688
1203.423828	6244.620117
1201.718750	6316.482422
1200.011719	6253.543457
1198.304688	6171.592773
1196.597656	6170.210449
1194.888672	6182.002930
1193.181641	6157.200684
1191.472656	6142.650879
1189.763672	6054.962402
1188.054688	6104.794434
1186.343750	5973.285156
1184.634766	6008.492676
1182.923828	5980.835449
1181.212891	5912.274902
1179.501953	5872.962891
1177.791016	5852.655762
1176.078125	5865.943848
1174.365234	5876.305664
1172.652344	5953.804199
1170.939453	5977.273926
1169.226563	5955.504395
1167.511719	6059.187012
1165.798828	6049.073730
1164.083984	5974.813477
1162.369141	5810.211426
1160.652344	5868.653809
1158.937500	5922.698242
1157.220703	6043.724609
1155.503906	5901.097656
1153.787109	5915.784180
1152.070313	6001.791992
1150.351563	6006.260254
1148.632813	5959.799805
1146.916016	6128.655762
1145.195313	6064.735352
1143.476563	6205.862793
1141.757813	6203.008301
1140.037109	6239.395996
1138.316406	6140.632324
1136.595703	6005.593750
1134.875000	6011.499023
1133.152344	6005.784180
1131.429688	5875.221191
1129.708984	5863.732910
1127.984375	5740.515137
1126.261719	5859.630371
1124.539063	5798.836426
1122.814453	5730.819336
1121.089844	5683.129395
1119.365234	5591.977051
1117.640625	5539.991211
1115.914063	5635.805664
1114.187500	5534.584473
1112.462891	5385.620117
1110.734375	5381.503906
1109.007813	5406.338379
1107.281250	5303.812012
1105.552734	5214.352539
1103.824219	5155.309570
1102.095703	5154.139648
1100.367188	5015.615234
1098.636719	5231.302734
1096.908203	5201.211426
1095.177734	5101.779785
1093.447266	5188.736816
1091.714844	5069.133301
1089.984375	5184.934570
1088.251953	5091.368652
1086.519531	5204.224609
1084.787109	5177.069336
1083.054688	5336.015137
1081.320313	5305.956055
1079.585938	5278.793945
1077.851563	5390.034668
1076.117188	5321.068848
1074.382813	5443.775391
1072.648438	5464.144043
1070.912109	5333.275391
1069.175781	5225.504883
1067.439453	5238.709473
1065.701172	5149.719238
1063.964844	5194.590820
1062.226563	5035.157715
1060.488281	4986.545410
1058.750000	4939.392578
1057.011719	5018.771973
1055.271484	4883.956543
1053.531250	4948.941895
1051.791016	4883.162109
1050.050781	4992.643066
1048.310547	4997.245605
1046.568359	4994.667480
1044.826172	5017.925781
1043.083984	5036.868164
1041.341797	5058.670898
1039.599609	5096.240723
1037.855469	4994.692871
1036.113281	5139.786133
1034.369141	5094.174805
1032.623047	5111.637207
1030.878906	5035.965332
1029.132813	5193.805664
1027.386719	5047.978027
1025.640625	5159.926758
1023.894531	5180.214844
1022.148438	5157.560547
1020.400391	5200.730469
1018.652344	5276.779297
1016.904297	5275.567871
1015.156250	5334.406738
1013.406250	5204.533691
1011.658203	5241.923828
1009.908203	5295.013184
1008.158203	5210.946777
1006.408203	5259.733398
1004.656250	5085.762695
1002.904297	5086.020508
1001.152344	5089.132324
999.400391	5113.644043
997.648438	4989.791504
995.896484	4961.546387
994.142578	4964.681641
992.388672	4878.009766
990.634766	4915.365723
988.878906	4885.736816
987.125000	4975.779297
985.369141	4939.028809
983.613281	5081.698730
981.857422	5079.103516
980.099609	5124.897461
978.343750	5035.498535
976.585938	4940.449707
974.828125	5003.309082
973.070313	5037.701172
971.310547	4986.784180
969.552734	4964.314941
967.792969	4953.222168
966.033203	4959.181152
964.273438	5070.233887
962.511719	4988.127441
960.750000	5006.848633
958.990234	5093.684570
957.226563	5143.587891
955.464844	5060.120117
953.703125	5020.656738
951.939453	4925.911133
950.175781	4941.782227
948.412109	4844.263672
946.648438	4913.989746
944.882813	4762.689453
943.117188	4774.333008
941.351563	4812.874023
939.585938	4715.495605
937.820313	4783.752930
936.052734	4747.269531
934.285156	4798.510742
932.517578	4825.684570
930.750000	4936.271484
928.982422	4953.503906
927.212891	4950.940918
925.443359	4889.032227
923.673828	4945.817383
921.904297	4913.597168
920.132813	4846.090820
918.361328	4826.612793
916.591797	4773.270508
914.818359	4691.731445
913.046875	4596.123047
911.275391	4486.454102
909.501953	4527.712891
907.728516	4497.055664
905.955078	4555.204590
904.179688	4497.781738
902.406250	4492.508789
900.630859	4578.785156
898.855469	4579.127441
897.080078	4610.439941
895.302734	4575.587402
893.525391	4585.778320
891.750000	4581.896484
889.970703	4690.532227
888.193359	4690.845215
886.416016	4713.650391
884.636719	4581.842285
882.857422	4593.419922
881.078125	4488.391602
879.296875	4477.513184
877.517578	4350.093750
875.736328	4395.404785
873.955078	4353.677246
872.173828	4396.159180
870.390625	4423.189453
868.609375	4342.212402
866.826172	4244.446777
865.042969	4268.688477
863.259766	4134.544434
861.474609	4314.334473
859.689453	4215.263672
857.904297	4274.501953
856.119141	4179.686523
854.333984	4287.901367
852.546875	4221.118164
850.761719	4221.529297
848.974609	4247.120605
847.185547	4145.427734
845.398438	4274.495605
843.609375	4161.659668
841.822266	4287.867188
840.031250	4391.659180
838.242188	4456.286621
836.453125	4365.858398
834.662109	4388.571777
832.871094	4374.979004
831.080078	4266.488281
829.289063	4349.207031
827.496094	4320.287109
825.703125	4239.777344
823.910156	4135.601563
822.117188	4191.785156
820.324219	4260.485352
818.529297	4219.077637
816.734375	4193.012695
814.939453	4221.274414
813.144531	4295.470703
811.347656	4316.734375
809.550781	4378.347168
807.755859	4359.229980
805.957031	4347.076660
804.160156	4375.260254
802.361328	4292.197266
800.564453	4288.407227
798.765625	4166.489746
796.964844	4157.172852
795.166016	4177.031250
793.365234	4176.047852
791.564453	4283.363770
789.763672	4240.711914
787.962891	4356.288086
786.160156	4337.225098
784.359375	4229.393555
782.556641	4306.058594
780.751953	4268.995117
778.949219	4322.049316
777.144531	4208.777832
775.339844	4227.183105
773.535156	4190.171387
771.730469	4157.331543
769.925781	4172.965332
768.119141	4160.907227
766.312500	4252.645020
764.505859	4207.368164
762.697266	4355.763184
760.890625	4316.013672
759.082031	4386.888184
757.273438	4492.285156
755.464844	4746.878418
753.654297	4925.363770
751.845703	5328.910156
750.035156	5964.262207
748.224609	6647.635254
746.412109	7239.585938
744.601563	8156.926270
742.789063	8757.896484
740.976563	10144.785156
739.164063	11873.003906
737.349609	14442.760742
735.537109	17315.910156
733.722656	19100.457031
731.908203	19459.644531
730.091797	17995.050781
728.277344	14716.232422
726.460938	11528.451172
724.644531	8887.220703
722.828125	7248.999512
721.009766	6124.696777
719.193359	5384.660645
717.375000	4965.364746
715.556641	4643.873535
713.736328	4372.013672
711.917969	4302.272949
710.097656	4323.233398
708.277344	4238.428711
706.457031	4223.692871
704.636719	4127.968750
702.814453	4161.301270
700.992188	4201.478516
699.169922	4146.980957
697.347656	4213.199707
695.523438	4321.893066
693.699219	4426.421387
691.875000	4480.190918
690.050781	4577.780762
688.226563	4553.406250
686.400391	4678.322266
684.574219	4606.012207
682.748047	4574.803223
680.921875	4384.855469
679.095703	4238.781250
677.267578	4245.981445
675.439453	4193.004395
673.611328	4185.171875
671.781250	4226.551758
669.953125	4105.285645
668.123047	4108.408691
666.292969	4095.138184
664.460938	4068.217285
662.630859	4124.592773
660.798828	4185.036133
658.966797	4239.991211
657.134766	4264.904785
655.302734	4478.039551
653.468750	4494.701660
651.634766	4599.974121
649.800781	4575.707520
647.966797	4675.458984
646.130859	4753.364258
644.294922	4738.611816
642.458984	4722.504395
640.623047	4725.463867
638.787109	4684.866699
636.949219	4564.003418
635.111328	4534.347168
633.273438	4515.584961
631.435547	4536.266113
629.595703	4535.185059
627.757813	4463.428711
625.917969	4401.217773
624.076172	4394.734863
622.236328	4304.047363
620.394531	4266.359375
618.552734	4117.372070
616.710938	4044.458496
614.869141	3994.646240
613.025391	3925.865967
611.183594	3899.160889
609.339844	3837.215088
607.494141	3807.832275
605.650391	3821.831543
603.804688	3742.333252
601.958984	3813.234619
600.113281	3824.513184
598.267578	3787.043213
596.419922	3814.565674
594.572266	3704.036133
592.724609	3807.332520
590.876953	3765.843018
589.027344	3793.343262
587.179688	3757.284668
585.330078	3773.959229
583.480469	3694.677734
581.628906	3695.146240
579.779297	3710.472412
577.927734	3747.397461
576.076172	3754.602539
574.222656	3802.297119
572.371094	3872.908936
570.517578	4008.244873
568.664063	4090.912598
566.810547	4200.509766
564.955078	4191.416992
563.101563	4209.284668
561.246094	4232.533203
559.390625	4289.450684
557.533203	4211.653320
555.677734	4199.874023
553.820313	4122.134766
551.962891	4107.689941
550.105469	3995.024658
548.246094	3882.412598
546.386719	3796.752930
544.527344	3708.444824
542.667969	3706.213379
540.808594	3687.854980
538.947266	3617.103027
537.085938	3582.654297
535.224609	3577.767822
533.363281	3598.394775
531.500000	3542.496582
529.638672	3545.674805
527.775391	3453.589355
525.910156	3584.219727
524.046875	3803.298828
522.181641	4256.905273
520.316406	4584.292969
518.451172	4387.538574
516.585938	3963.113037
514.718750	3596.487549
512.851563	3513.938232
510.984375	3427.411377
509.117188	3338.249023
507.250000	3349.493164
505.380859	3370.096924
503.511719	3323.813232
501.642578	3377.843506
499.771484	3362.328613
497.902344	3362.859863
496.031250	3291.231934
494.160156	3303.803223
492.287109	3353.765625
490.416016	3318.244141
488.542969	3273.394531
486.669922	3338.009277
484.796875	3295.844727
482.921875	3300.391113
481.046875	3338.278076
479.171875	3266.808350
477.296875	3328.680176
475.421875	3237.255371
473.544922	3244.474365
471.667969	3334.280518
469.791016	3309.509277
467.914063	3342.003174
466.035156	3240.034424
464.156250	3333.747314
462.277344	3293.032959
460.398438	3128.629150
458.519531	3296.774170
456.638672	3205.573975
454.757813	3277.914063
452.876953	3197.393066
450.994141	3265.714111
449.113281	3159.996826
447.230469	3211.030273
445.347656	3154.499268
443.462891	3133.833252
441.580078	3267.110596
439.695313	3190.705811
437.810547	3284.114014
435.925781	3271.392334
434.039063	3234.813232
432.152344	3308.261719
430.267578	3274.341064
428.378906	3314.624756
426.492188	3244.957764
424.603516	3154.137451
422.714844	3291.060791
420.826172	3229.389893
418.937500	3220.676758
417.046875	3246.362549
415.158203	3183.423828
413.265625	3186.627686
411.375000	3132.986572
409.484375	3240.608398
407.591797	3213.405762
405.699219	3170.364014
403.806641	3177.528320
401.912109	3189.970459
400.019531	3183.925781
