#Wave	#Intensity
2109.007813	1675.42041
2107.496094	1690.305664
2105.984375	1719.704224
2104.470703	1643.285034
2102.958984	1641.276978
2101.445313	1702.064331
2099.933594	1653.78479
2098.419922	1691.418457
2096.90625	1649.7677
2095.390625	1725.360474
2093.876953	1690.323242
2092.361328	1713.063477
2090.845703	1694.544067
2089.332031	1737.069214
2087.814453	1703.708984
2086.298828	1723.128906
2084.783203	1648.571777
2083.265625	1661.402344
2081.748047	1731.902588
2080.230469	1668.924316
2078.712891	1681.74231
2077.195313	1661.618774
2075.677734	1648.0896
2074.158203	1636.212402
2072.638672	1744.479004
2071.119141	1625.636475
2069.599609	1691.088013
2068.080078	1690.724609
2066.560547	1698.582886
2065.039063	1680.134277
2063.517578	1697.853149
2061.996094	1736.92688
2060.474609	1697.124146
2058.953125	1704.972656
2057.429688	1727.597534
2055.908203	1646.776245
2054.384766	1739.988403
2052.861328	1647.71106
2051.337891	1708.067139
2049.814453	1699.498657
2048.289063	1687.653809
2046.765625	1713.527954
2045.240234	1614.797607
2043.714844	1678.374146
2042.189453	1694.401611
2040.664063	1630.143677
2039.136719	1687.124146
2037.609375	1691.676025
2036.083984	1707.68689
2034.556641	1692.589111
2033.029297	1726.595337
2031.5	1700.046265
2029.972656	1717.67749
2028.443359	1700.954956
2026.914063	1659.711792
2025.386719	1685.514526
2023.855469	1719.478516
2022.326172	1673.355347
2020.796875	1762.856323
2019.265625	1721.643921
2017.734375	1660.851929
2016.203125	1709.479614
2014.671875	1665.040161
2013.140625	1723.438477
2011.607422	1687.173462
2010.076172	1711.283691
2008.542969	1694.608765
2007.009766	1704.03125
2005.476563	1646.6073
2003.943359	1644.626343
2002.408203	1668.719849
2000.875	1645.554565
1999.339844	1721.762939
1997.804688	1737.681885
1996.269531	1683.580444
1994.732422	1683.221802
1993.197266	1717.041504
1991.660156	1685.759399
1990.123047	1680.52002
1988.585938	1657.391479
1987.048828	1720.458374
1985.511719	1653.43457
1983.972656	1664.460938
1982.435547	1675.482666
1980.896484	1715.745239
1979.357422	1700.76062
1977.818359	1671.165771
1976.279297	1716.274658
1974.738281	1652.598145
1973.197266	1702.560913
1971.658203	1650.273071
1970.117188	1649.922363
1968.576172	1675.523804
1967.033203	1720.574097
1965.492188	1697.510376
1963.949219	1601.512939
1962.40625	1688.686279
1960.863281	1714.252197
1959.320313	1658.810547
1957.777344	1703.806885
1956.232422	1687.252808
1954.689453	1612.425293
1953.144531	1673.588257
1951.599609	1665.14209
1950.054688	1638.902954
1948.507813	1656.348022
1946.962891	1707.746582
1945.416016	1663.729736
1943.869141	1640.745972
1942.322266	1621.00415
1940.775391	1610.965576
1939.228516	1718.860596
1937.679688	1653.891113
1936.132813	1713.287598
1934.583984	1711.310059
1933.035156	1638.312866
1931.486328	1700.902344
1929.935547	1686.02124
1928.386719	1696.955566
1926.835938	1693.370605
1925.285156	1705.911133
1923.734375	1707.161865
1922.183594	1748.704712
1920.632813	1658.097778
1919.080078	1686.745239
1917.527344	1671.891968
1915.976563	1716.627686
1914.423828	1695.334229
1912.869141	1727.168579
1911.316406	1699.44458
1909.761719	1720.001709
1908.208984	1653.68335
1906.654297	1637.250488
1905.099609	1683.534912
1903.544922	1696.039673
1901.988281	1666.749756
1900.433594	1712.998413
1898.876953	1688.537109
1897.320313	1691.392456
1895.763672	1736.000488
1894.207031	1713.155273
1892.648438	1691.924805
1891.091797	1681.937622
1889.533203	1652.699829
1887.974609	1669.996826
1886.416016	1692.098145
1884.857422	1642.030518
1883.298828	1681.76355
1881.738281	1655.762207
1880.177734	1721.115845
1878.617188	1698.321411
1877.056641	1633.888428
1875.496094	1734.438354
1873.935547	1605.977905
1872.373047	1698.486938
1870.810547	1643.71106
1869.248047	1681.767578
1867.685547	1651.015625
1866.123047	1652.266235
1864.560547	1682.300903
1862.996094	1629.184814
1861.431641	1699.17334
1859.867188	1684.431152
1858.302734	1677.684082
1856.738281	1678.927124
1855.171875	1597.119385
1853.607422	1643.088745
1852.041016	1689.038574
1850.474609	1643.990845
1848.908203	1686.72937
1847.341797	1656.059814
1845.773438	1749.820801
1844.207031	1682.471313
1842.638672	1696.46582
1841.070313	1617.997314
1839.501953	1671.843018
1837.931641	1630.061279
1836.363281	1685.474609
1834.792969	1691.489624
1833.222656	1651.322388
1831.652344	1670.078491
1830.082031	1692.01001
1828.511719	1691.65271
1826.941406	1637.199463
1825.369141	1690.938354
1823.796875	1658.77356
1822.224609	1696.584473
1820.652344	1615.150757
1819.078125	1679.974243
1817.505859	1682.797607
1815.931641	1690.385742
1814.357422	1702.73584
1812.783203	1637.266724
1811.208984	1654.385742
1809.634766	1696.895264
1808.058594	1661.622192
1806.484375	1696.178711
1804.908203	1670.438721
1803.332031	1647.881592
1801.753906	1684.004517
1800.177734	1674.136719
1798.601563	1703.89856
1797.023438	1736.817261
1795.445313	1666.738892
1793.867188	1658.466797
1792.289063	1650.19812
1790.708984	1638.766113
1789.130859	1690.659546
1787.550781	1653.900757
1785.970703	1726.339355
1784.390625	1699.080566
1782.810547	1700.303345
1781.228516	1687.293457
1779.646484	1688.518066
1778.066406	1667.612549
1776.484375	1687.80481
1774.902344	1725.368408
1773.318359	1633.382813
1771.736328	1721.480835
1770.152344	1648.482788
1768.568359	1698.651978
1766.984375	1630.424561
1765.400391	1710.55835
1763.816406	1713.352295
1762.230469	1695.639404
1760.646484	1709.474243
1759.060547	1671.272827
1757.474609	1748.160156
1755.888672	1750.942749
1754.300781	1652.880981
1752.714844	1699.791748
1751.126953	1697.857422
1749.539063	1713.245361
1747.951172	1675.098999
1746.363281	1718.817017
1744.775391	1723.174683
1743.185547	1711.796997
1741.595703	1761.771362
1740.007813	1751.962769
1738.416016	1737.441162
1736.826172	1806.24231
1735.236328	1779.141724
1733.644531	1800.764282
1732.052734	1830.232666
1730.462891	1807.855957
1728.869141	1843.591675
1727.277344	1821.221313
1725.685547	1769.036377
1724.091797	1812.604004
1722.498047	1838.893921
1720.904297	1796.150146
1719.310547	1849.094116
1717.716797	1834.590576
1716.121094	1889.071655
1714.527344	1782.091064
1712.931641	1839.69397
1711.335938	1864.371704
1709.740234	1834.216064
1708.142578	1862.016357
1706.546875	1913.290283
1704.949219	1912.885132
1703.351563	1870.223877
1701.753906	1860.439575
1700.15625	1861.609863
1698.558594	1850.267212
1696.958984	1884.276978
1695.359375	1896.384766
1693.759766	1899.109009
1692.160156	1894.018433
1690.560547	1877.993164
1688.960938	1890.091675
1687.359375	1886.567627
1685.757813	1923.641235
1684.15625	1998.164551
1682.554688	1916.582642
1680.953125	1966.109253
1679.349609	1897.049072
1677.748047	1966.835205
1676.144531	1939.908081
1674.541016	1906.755859
1672.9375	1978.053833
1671.332031	2021.269897
1669.728516	2033.305786
1668.123047	1930.062256
1666.517578	1960.80127
1664.912109	2022.668945
1663.306641	2087.623779
1661.701172	2108.970703
1660.09375	2148.981689
1658.486328	2142.302246
1656.878906	2155.846436
1655.271484	2225.368652
1653.664063	2260.656006
1652.056641	2267.948242
1650.447266	2377.809082
1648.837891	2226.585938
1647.228516	2268.056396
1645.619141	2258.255615
1644.009766	2330.757324
1642.398438	2365.96875
1640.789063	2458.594238
1639.177734	2349.444824
1637.566406	2482.372559
1635.955078	2421.349854
1634.341797	2481.316895
1632.730469	2522.652344
1631.117188	2520.565674
1629.503906	2560.324951
1627.890625	2569.077148
1626.277344	2630.497314
1624.662109	2600.509521
1623.048828	2612.343994
1621.433594	2630.365967
1619.818359	2649.927979
1618.203125	2641.626221
1616.587891	2696.762695
1614.970703	2762.703369
1613.353516	2939.966553
1611.738281	2879.038086
1610.121094	2940.259766
1608.501953	3032.365967
1606.884766	3014.722412
1605.267578	3116.042236
1603.648438	3090.665039
1602.029297	3113.169434
1600.410156	3097.066406
1598.791016	3128.821045
1597.169922	3108.091309
1595.550781	3144.458252
1593.929688	3086.71167
1592.308594	3118.440186
1590.6875	3105.439209
1589.064453	3070.861084
1587.443359	2985.435791
1585.820313	2986.339355
1584.197266	2971.835938
1582.574219	2994.30542
1580.951172	2938.227539
1579.328125	2860.618652
1577.703125	2936.972168
1576.080078	2937.883301
1574.455078	3034.189453
1572.830078	2968.931885
1571.203125	2974.448975
1569.578125	3006.103516
1567.951172	2948.579834
1566.324219	2944.875
1564.697266	2865.875244
1563.070313	2880.625244
1561.443359	2821.640625
1559.816406	2896.284912
1558.1875	2789.72583
1556.558594	2848.994141
1554.929688	2820.759766
1553.300781	2800.208984
1551.669922	2862.504395
1550.041016	2777.537354
1548.410156	2795.342773
1546.779297	2785.54541
1545.148438	2797.209961
1543.517578	2799.675049
1541.884766	2668.849609
1540.251953	2639.174316
1538.621094	2744.275146
1536.988281	2716.127197
1535.353516	2588.492432
1533.720703	2597.119385
1532.085938	2541.47876
1530.453125	2620.480713
1528.818359	2561.799561
1527.183594	2544.429443
1525.546875	2522.47998
1523.912109	2528.052002
1522.275391	2524.452637
1520.640625	2531.549072
1519.003906	2454.631836
1517.365234	2510.608154
1515.728516	2563.506592
1514.091797	2515.634521
1512.453125	2551.720947
1510.814453	2480.984375
1509.175781	2547.572266
1507.537109	2508.89502
1505.896484	2523.603271
1504.257813	2370.609375
1502.617188	2449.356201
1500.976563	2406.160889
1499.335938	2378.219238
1497.693359	2269.560059
1496.052734	2401.560547
1494.410156	2420.835938
1492.767578	2338.11499
1491.125	2290.432617
1489.482422	2362.973145
1487.837891	2345.730225
1486.195313	2308.722656
1484.550781	2343.197754
1482.90625	2316.8479
1481.261719	2339.146729
1479.617188	2356.876709
1477.970703	2373.079834
1476.324219	2351.302246
1474.677734	2467.726807
1473.03125	2468.711914
1471.384766	2478.804199
1469.738281	2501.032715
1468.089844	2468.62915
1466.441406	2521.188965
1464.792969	2452.395508
1463.144531	2433.669434
1461.496094	2522.585693
1459.845703	2503.852051
1458.197266	2482.095703
1456.546875	2364.904053
1454.896484	2443.154785
1453.244141	2410.824707
1451.59375	2334.602051
1449.941406	2338.637451
1448.291016	2318.457275
1446.638672	2355.780518
1444.984375	2247.868408
1443.332031	2303.338867
1441.679688	2262.01416
1440.025391	2302.339844
1438.371094	2244.407959
1436.716797	2222.766113
1435.0625	2189.047852
1433.40625	2173.46875
1431.75	2124.674561
1430.095703	2124.213135
1428.439453	2125.26123
1426.78125	2114.236084
1425.125	2121.320557
1423.466797	2068.064209
1421.810547	2161.117432
1420.152344	2110.890869
1418.494141	2116.46167
1416.833984	2067.773438
1415.175781	2157.731445
1413.515625	2106.041992
1411.855469	2102.571533
1410.195313	2156.322998
1408.535156	2201.018311
1406.875	2281.817383
1405.212891	2356.561768
1403.550781	2467.381592
1401.888672	2457.818848
1400.226563	2533.979492
1398.564453	2488.321533
1396.900391	2420.135498
1395.238281	2436.13916
1393.574219	2300.379639
1391.910156	2356.96167
1390.244141	2306.885498
1388.580078	2279.354004
1386.914063	2191.7854
1385.248047	2201.813232
1383.582031	2196.830566
1381.916016	2235.356934
1380.25	2245.36792
1378.582031	2271.869629
1376.916016	2238.389404
1375.248047	2206.422607
1373.578125	2301.850586
1371.910156	2278.873047
1370.242188	2309.831299
1368.572266	2289.856934
1366.902344	2287.858398
1365.232422	2273.884766
1363.5625	2348.21875
1361.890625	2253.437012
1360.220703	2345.694092
1358.548828	2262.919434
1356.876953	2277.376709
1355.205078	2263.422363
1353.53125	2271.894287
1351.859375	2295.30542
1350.185547	2394.900635
1348.511719	2485.48999
1346.837891	2538.705322
1345.164063	2688.944092
1343.488281	2813.740479
1341.8125	2883.26416
1340.138672	3130.310303
1338.460938	3217.634033
1336.785156	3321.324219
1335.109375	3432.423828
1333.431641	3519.622559
1331.753906	3433.895508
1330.076172	3462.94165
1328.398438	3594.767822
1326.720703	3567.167236
1325.041016	3564.892822
1323.361328	3578.99585
1321.681641	3466.574951
1320.001953	3372.060303
1318.322266	3319.245117
1316.640625	3202.492188
1314.960938	3020.356934
1313.279297	2914.128174
1311.597656	2802.000244
1309.914063	2688.435303
1308.232422	2646.239502
1306.548828	2629.315186
1304.865234	2523.288574
1303.181641	2466.307861
1301.498047	2401.929688
1299.814453	2290.085938
1298.128906	2374.159424
1296.443359	2346.931396
1294.757813	2252.97168
1293.072266	2172.398926
1291.386719	2263.835938
1289.699219	2175.88501
1288.011719	2090.936279
1286.324219	2152.698975
1284.636719	2146.297607
1282.949219	2179.883301
1281.259766	2063.916016
1279.572266	2053.097412
1277.882813	2054.122559
1276.193359	2066.983643
1274.501953	2143.447266
1272.8125	2082.335938
1271.121094	2129.189453
1269.429688	2054.803467
1267.738281	1983.40625
1266.046875	2019.906738
1264.353516	2046.049683
1262.662109	2016.056274
1260.96875	1990.505859
1259.275391	2006.303223
1257.582031	2042.75708
1255.886719	2005.411987
1254.193359	2071.355957
1252.498047	2082.695557
1250.802734	2108.776367
1249.107422	2174.652832
1247.410156	2153.532959
1245.714844	2200.21167
1244.017578	2126.054199
1242.320313	2074.024902
1240.623047	2129.525879
1238.925781	2062.794922
1237.226563	2135.9375
1235.527344	2076.593018
1233.828125	2018.746094
1232.128906	1947.685181
1230.429688	2001.668091
1228.728516	2043.863403
1227.029297	1972.84375
1225.328125	2000.328857
1223.626953	1922.003052
1221.923828	1964.177734
1220.222656	1919.67627
1218.519531	1939.805664
1216.816406	1914.414551
1215.113281	1871.421143
1213.410156	1891.547241
1211.707031	1907.262817
1210.001953	1859.898804
1208.296875	1858.016357
1206.591797	1938.238525
1204.886719	1912.886108
1203.179688	1840.64917
1201.474609	1803.608276
1199.767578	1810.528564
1198.060547	1770.581543
1196.353516	1743.829712
1194.644531	1810.775879
1192.9375	1839.640381
1191.228516	1836.301636
1189.519531	1835.889893
1187.810547	1854.491089
1186.099609	1861.386108
1184.390625	1875.587158
1182.679688	1851.781372
1180.96875	1819.218872
1179.257813	1801.279663
1177.544922	1815.480713
1175.833984	1775.646606
1174.121094	1819.0448
1172.408203	1808.418823
1170.695313	1819.686401
1168.982422	1874.716187
1167.267578	1830.536743
1165.552734	1802.417847
1163.837891	1758.274048
1162.123047	1810.352295
1160.408203	1849.291382
1158.691406	1818.278931
1156.976563	1829.522339
1155.259766	1808.722046
1153.541016	1755.899536
1151.824219	1710.378906
1150.107422	1691.074219
1148.388672	1674.687988
1146.669922	1735.405884
1144.951172	1735.014404
1143.230469	1743.346802
1141.511719	1696.435791
1139.791016	1664.079224
1138.070313	1676.78064
1136.349609	1682.212646
1134.628906	1697.808472
1132.90625	1694.520752
1131.185547	1686.879272
1129.462891	1705.365723
1127.740234	1677.410156
1126.015625	1732.158081
1124.292969	1743.369263
1122.568359	1641.470459
1120.84375	1703.437378
1119.119141	1627.682617
1117.394531	1707.013306
1115.667969	1710.9729
1113.941406	1658.442017
1112.214844	1681.235718
1110.488281	1663.481445
1108.761719	1694.947876
1107.033203	1651.150269
1105.306641	1650.775757
1103.578125	1621.472168
1101.849609	1584.95105
1100.119141	1522.422119
1098.390625	1559.658569
1096.660156	1572.310669
1094.929688	1599.404907
1093.199219	1560.040527
1091.46875	1556.797607
1089.736328	1540.561768
1088.003906	1569.081421
1086.273438	1545.633789
1084.539063	1512.096924
1082.806641	1527.620483
1081.074219	1579.191528
1079.339844	1547.111206
1077.605469	1519.369873
1075.871094	1562.259888
1074.134766	1510.032715
1072.400391	1482.318359
1070.664063	1545.349976
1068.927734	1540.677979
1067.191406	1523.052124
1065.455078	1512.630127
1063.716797	1489.262695
1061.978516	1560.851563
1060.240234	1564.810059
1058.501953	1522.753296
1056.763672	1551.157471
1055.023438	1511.997192
1053.283203	1491.53479
1051.542969	1571.643799
1049.802734	1555.485596
1048.0625	1595.336548
1046.320313	1549.031982
1044.578125	1601.783569
1042.835938	1568.413086
1041.09375	1618.266357
1039.351563	1594.947144
1037.607422	1560.166626
1035.863281	1552.641235
1034.119141	1615.351807
1032.375	1594.919922
1030.628906	1598.852539
1028.884766	1618.538818
1027.138672	1603.847778
1025.392578	1596.321777
1023.646484	1633.170776
1021.898438	1612.761963
1020.152344	1608.099854
1018.404297	1570.541382
1016.65625	1607.361938
1014.90625	1641.305908
1013.158203	1583.753784
1011.408203	1570.528564
1009.658203	1657.320068
1007.908203	1586.947876
1006.158203	1590.86731
1004.40625	1540.530762
1002.65625	1573.00708
1000.904297	1535.541138
999.150391	1602.245361
997.398438	1590.465332
995.646484	1557.299072
993.892578	1578.327148
992.138672	1542.327759
990.384766	1554.798706
988.628906	1515.971313
986.875	1541.262329
985.119141	1489.63855
983.363281	1533.432983
981.607422	1515.997925
979.849609	1576.843506
978.09375	1532.372559
976.335938	1569.003784
974.578125	1487.578613
972.820313	1536.999512
971.060547	1522.429688
969.300781	1583.188721
967.542969	1565.772949
965.78125	1551.206055
964.021484	1698.547485
962.261719	1625.742065
960.5	1690.664795
958.738281	1697.369995
956.976563	1721.098511
955.214844	1756.164185
953.451172	1741.575684
951.6875	1629.15918
949.923828	1591.925537
948.160156	1568.881226
946.396484	1564.267334
944.630859	1514.324707
942.865234	1516.806519
941.099609	1519.286987
939.333984	1503.363403
937.568359	1488.862183
935.800781	1495.591797
934.033203	1505.147339
932.265625	1469.441162
930.498047	1478.998047
928.730469	1506.92749
926.960938	1543.323608
925.191406	1451.122192
923.421875	1439.484131
921.652344	1441.974609
919.880859	1452.935547
918.109375	1444.128052
916.337891	1514.359131
914.566406	1473.088135
912.794922	1485.441895
911.021484	1485.096558
909.248047	1491.80127
907.474609	1456.212036
905.701172	1469.966919
903.927734	1424.535767
902.152344	1481.961304
900.376953	1464.71582
898.601563	1450.294189
896.826172	1445.733398
895.050781	1456.655884
893.273438	1483.050781
891.496094	1513.653564
889.71875	1486.578979
887.939453	1548.10022
886.162109	1506.972412
884.382813	1464.45813
882.603516	1482.382813
880.824219	1448.32251
879.044922	1460.624634
877.263672	1413.947754
875.482422	1434.674683
873.701172	1456.795166
871.919922	1432.601685
870.138672	1446.295166
868.355469	1429.127563
866.572266	1421.782959
864.789063	1356.966797
863.005859	1394.48999
861.220703	1332.512573
859.435547	1377.027954
857.650391	1417.320923
855.865234	1433.791626
854.080078	1391.460449
852.292969	1440.118408
850.505859	1361.426025
848.71875	1432.450073
846.931641	1390.158203
845.144531	1423.390015
843.355469	1418.862915
841.566406	1376.603638
839.777344	1380.472778
837.988281	1378.752441
836.197266	1407.757568
834.408203	1429.7677
832.617188	1446.183594
830.824219	1422.119263
829.033203	1358.998291
827.240234	1385.183472
825.449219	1375.096191
823.65625	1384.533447
821.861328	1427.421509
820.068359	1390.851807
818.273438	1415.604858
816.478516	1441.739136
814.683594	1426.081177
812.888672	1414.607544
811.091797	1401.747192
809.296875	1374.975952
807.5	1364.91333
805.701172	1381.284668
803.904297	1376.787842
802.105469	1375.07373
800.308594	1378.92041
798.509766	1342.463501
796.708984	1376.882202
794.910156	1307.105225
793.109375	1359.569458
791.308594	1413.397217
789.507813	1357.54126
787.707031	1408.568481
785.904297	1380.488159
784.101563	1391.259766
782.298828	1397.865845
780.496094	1318.509155
778.693359	1369.484741
776.888672	1337.288696
775.083984	1363.297241
773.279297	1360.205566
771.474609	1368.193604
769.667969	1391.407227
767.861328	1370.316528
766.054688	1352.003418
764.248047	1404.257568
762.441406	1390.09436
760.632813	1382.851929
758.824219	1350.727417
757.015625	1379.43457
755.207031	1363.908203
753.398438	1370.493774
751.587891	1374.313721
749.777344	1431.986572
747.966797	1448.214966
746.154297	1530.687134
744.34375	1577.24231
742.53125	1661.024292
740.71875	1926.829224
738.90625	2189.750244
737.091797	2685.531738
735.277344	3272.04541
733.464844	3731.509033
731.648438	3913.851074
729.833984	3736.629639
728.019531	3191.838379
726.203125	2678.967529
724.386719	2275.069336
722.568359	1937.410278
720.751953	1782.875732
718.933594	1690.304932
717.115234	1552.4021
715.296875	1564.406616
713.478516	1500.814697
711.658203	1440.000977
709.839844	1420.42749
708.019531	1442.065063
706.197266	1389.546509
704.376953	1418.044678
702.554688	1431.432495
700.734375	1432.465088
698.910156	1454.073608
697.087891	1411.213867
695.265625	1373.858887
693.441406	1464.005005
691.617188	1415.691162
689.792969	1457.829468
687.966797	1460.223022
686.140625	1458.506836
684.316406	1444.46875
682.490234	1414.01123
680.662109	1424.623535
678.835938	1392.81665
677.007813	1438.993164
675.179688	1392.154907
673.351563	1350.807617
671.521484	1411.996582
669.693359	1404.828003
667.863281	1420.888916
666.033203	1421.916992
664.201172	1394.26709
662.371094	1430.797607
660.539063	1495.974487
658.707031	1436.940063
656.875	1440.691162
655.041016	1459.443848
653.208984	1442.732788
651.375	1498.285522
649.541016	1467.942993
647.705078	1511.198975
645.871094	1430.460938
644.035156	1439.654419
642.199219	1497.864502
640.363281	1479.809937
638.525391	1516.205688
636.689453	1438.283447
634.851563	1448.823975
633.013672	1523.282837
631.173828	1486.206665
629.335938	1461.382813
627.496094	1495.011963
625.65625	1508.243408
623.816406	1528.260742
621.974609	1533.328857
620.132813	1534.321167
618.292969	1550.245117
616.449219	1536.303833
614.607422	1484.377686
612.763672	1475.884521
610.921875	1396.873535
609.078125	1416.878296
607.232422	1394.851563
605.388672	1440.596191
603.542969	1410.444702
601.697266	1407.398926
599.851563	1394.874756
598.005859	1420.266479
596.158203	1409.098511
594.310547	1418.235107
592.462891	1380.013794
590.615234	1385.094727
588.765625	1398.287109
586.916016	1357.393555
585.066406	1319.222778
583.216797	1374.312622
581.367188	1369.931274
579.515625	1375.006836
577.664063	1362.524902
575.8125	1358.149292
573.960938	1364.573364
572.107422	1330.512207
570.253906	1393.600952
568.400391	1370.338989
566.546875	1425.297363
564.693359	1352.158447
562.837891	1363.965332
560.982422	1387.893677
559.126953	1340.411743
557.269531	1340.091187
555.414063	1357.275269
553.556641	1355.604492
551.699219	1355.280273
549.841797	1344.191895
547.982422	1360.012939
546.123047	1375.826294
544.263672	1314.991455
542.404297	1322.74231
540.544922	1381.558716
538.683594	1436.31604
536.822266	1401.046997
534.960938	1408.769531
533.099609	1411.117676
531.236328	1421.518555
529.373047	1415.810303
527.509766	1380.587769
525.646484	1471.469604
523.783203	1680.319214
521.917969	2005.710938
520.052734	2436.837891
518.1875	2196.381348
516.320313	1807.326904
514.455078	1522.93457
512.587891	1419.458374
510.720703	1325.403076
508.853516	1296.977783
506.984375	1316.739502
505.115234	1337.829346
503.246094	1304.071289
501.376953	1331.839844
499.507813	1315.478516
497.636719	1297.788208
495.765625	1262.735474
493.894531	1301.174316
492.021484	1298.191406
490.150391	1313.903687
488.277344	1245.506592
486.404297	1294.589478
484.53125	1294.279297
482.65625	1316.646973
480.78125	1268.319458
478.90625	1257.348755
477.03125	1283.70813
475.15625	1279.402344
473.279297	1245.786011
471.402344	1229.502686
469.525391	1262.501831
467.648438	1223.587769
465.769531	1212.64563
463.890625	1276.233154
462.011719	1263.953003
460.132813	1226.405762
458.251953	1238.080322
456.371094	1245.760742
454.490234	1210.902954
452.609375	1302.305664
450.728516	1238.222412
448.845703	1257.849365
446.962891	1284.106445
445.080078	1234.677124
443.197266	1230.399292
441.3125	1263.278809
439.427734	1256.342773
437.542969	1241.451904
435.658203	1250.436523
433.771484	1280.62793
431.886719	1264.416382
430	1252.187744
428.111328	1220.093628
426.224609	1295.293823
424.335938	1271.149292
422.447266	1288.053955
420.558594	1270.540039
418.669922	1292.729248
416.779297	1217.017212
414.888672	1240.531128
412.998047	1277.255615
411.107422	1262.408691
409.214844	1268.714111
407.324219	1282.943848
405.431641	1246.970947
403.537109	1230.824585
401.644531	1238.451538
399.75	1242.114624
