#Wave		#Intensity
1585.210938	14973.386719
1584.209961	14798.551758
1583.208984	14802.976563
1582.208008	14849.842773
1581.206055	14614.628906
1580.204102	14581.654297
1579.202148	14977.843750
1578.200195	14595.570313
1577.198242	14804.539063
1576.195313	14664.329102
1575.192383	14716.137695
1574.189453	14885.070313
1573.186523	14749.913086
1572.182617	15045.831055
1571.178711	14982.932617
1570.174805	14788.068359
1569.170898	14832.313477
1568.166992	14739.624023
1567.162109	14778.881836
1566.158203	14984.842773
1565.153320	14665.785156
1564.147461	14722.443359
1563.142578	14826.327148
1562.136719	14910.277344
1561.130859	15058.822266
1560.125000	15100.438477
1559.119141	15298.576172
1558.113281	15804.675781
1557.106445	15518.259766
1556.099609	15899.942383
1555.092773	16010.854492
1554.084961	16218.523438
1553.078125	16297.060547
1552.070313	16216.770508
1551.062500	16168.761719
1550.054688	16192.695313
1549.045898	16236.455078
1548.038086	16176.074219
1547.029297	16165.289063
1546.020508	15807.579102
1545.011719	15801.829102
1544.001953	15580.578125
1542.992188	15394.088867
1541.982422	15123.492188
1540.972656	15202.052734
1539.962891	14936.556641
1538.952148	14829.536133
1537.942383	15044.174805
1536.931641	14900.073242
1535.919922	14481.534180
1534.909180	14757.920898
1533.897461	14435.988281
1532.886719	14517.026367
1531.874023	14644.978516
1530.862305	14434.433594
1529.850586	14579.637695
1528.837891	14391.416992
1527.825195	14346.466797
1526.812500	14491.596680
1525.799805	14342.994141
1524.786133	14470.791992
1523.772461	14386.391602
1522.758789	14484.530273
1521.745117	14299.063477
1520.731445	14227.074219
1519.716797	14386.802734
1518.702148	14346.859375
1517.687500	14489.249023
1516.672852	14198.050781
1515.657227	14246.828125
1514.642578	14219.255859
1513.626953	14565.872070
1512.610352	14459.485352
1511.594727	14267.018555
1510.579102	14453.496094
1509.562500	14448.042969
1508.545898	14122.902344
1507.529297	14461.727539
1506.511719	14399.737305
1505.494141	14396.754883
1504.477539	14386.401367
1503.458984	14668.386719
1502.441406	14510.614258
1501.423828	14424.118164
1500.405273	14654.362305
1499.386719	14653.781250
1498.368164	14410.247070
1497.348633	14824.365234
1496.330078	14730.531250
1495.310547	14675.975586
1494.291016	14851.932617
1493.271484	14765.503906
1492.250977	14877.641602
1491.231445	14658.914063
1490.210938	14726.925781
1489.190430	14598.950195
1488.168945	14931.434570
1487.148438	14886.715820
1486.126953	14746.543945
1485.105469	14670.063477
1484.083984	14659.681641
1483.061523	14798.536133
1482.040039	14758.779297
1481.017578	14846.201172
1479.995117	14936.030273
1478.971680	15055.154297
1477.949219	15091.134766
1476.925781	15307.912109
1475.902344	15229.007813
1474.878906	15338.199219
1473.855469	15388.740234
1472.831055	15607.713867
1471.806641	15829.036133
1470.782227	15825.752930
1469.757813	16061.576172
1468.733398	16541.236328
1467.708008	16389.035156
1466.682617	17141.519531
1465.657227	17269.607422
1464.631836	17422.011719
1463.605469	18156.753906
1462.579102	18418.544922
1461.552734	18448.824219
1460.526367	18220.947266
1459.500000	18794.212891
1458.472656	18403.259766
1457.445313	18564.937500
1456.417969	18288.554688
1455.390625	17956.333984
1454.362305	17602.359375
1453.334961	17212.052734
1452.306641	17057.740234
1451.277344	16672.570313
1450.249023	16338.593750
1449.219727	16257.448242
1448.191406	15865.392578
1447.162109	15842.667969
1446.131836	15603.837891
1445.102539	15921.057617
1444.072266	15755.125977
1443.041992	15312.616211
1442.011719	15486.547852
1440.981445	15687.089844
1439.950195	15443.734375
1438.918945	15462.347656
1437.887695	15173.078125
1436.856445	15140.839844
1435.825195	15234.621094
1434.792969	15444.650391
1433.760742	15109.600586
1432.728516	14915.145508
1431.696289	14921.729492
1430.663086	14884.737305
1429.629883	14901.002930
1428.596680	14663.196289
1427.563477	14747.236328
1426.530273	14891.707031
1425.496094	14506.540039
1424.461914	14544.622070
1423.427734	14655.202148
1422.393555	14681.153320
1421.358398	14455.812500
1420.323242	14380.334961
1419.288086	14210.697266
1418.252930	14359.861328
1417.217773	14506.548828
1416.181641	14527.665039
1415.145508	14389.504883
1414.109375	14444.412109
1413.073242	14564.422852
1412.036133	14694.029297
1411.000000	14686.146484
1409.962891	14979.593750
1408.924805	14957.192383
1407.887695	15168.532227
1406.849609	15521.920898
1405.812500	15798.085938
1404.773438	16001.891602
1403.735352	16097.268555
1402.697266	16539.228516
1401.658203	16660.923828
1400.619141	16674.292969
1399.580078	16868.076172
1398.540039	17068.994141
1397.500977	16894.707031
1396.460938	16939.265625
1395.420898	16880.451172
1394.380859	16629.410156
1393.339844	16613.929688
1392.298828	16463.935547
1391.257813	16345.224609
1390.216797	16104.105469
1389.175781	16026.327148
1388.133789	16202.988281
1387.091797	16221.203125
1386.049805	16234.610352
1385.007813	16492.666016
1383.964844	16892.101563
1382.922852	17051.609375
1381.879883	17359.669922
1380.835938	17413.562500
1379.792969	17846.011719
1378.749023	18009.972656
1377.706055	18272.064453
1376.661133	18251.484375
1375.617188	18621.146484
1374.573242	18648.373047
1373.528320	18823.955078
1372.483398	18616.650391
1371.438477	18421.392578
1370.392578	18257.306641
1369.347656	17811.138672
1368.301758	17876.740234
1367.255859	17784.568359
1366.208984	17486.929688
1365.163086	17292.146484
1364.116211	17181.042969
1363.069336	16769.085938
1362.022461	16861.080078
1360.974609	16439.812500
1359.927734	16784.810547
1358.879883	16490.195313
1357.832031	16548.767578
1356.783203	16504.755859
1355.735352	16637.220703
1354.686523	16485.923828
1353.637695	16439.566406
1352.588867	16805.500000
1351.539063	17028.324219
1350.490234	17234.380859
1349.440430	17688.033203
1348.390625	17734.328125
1347.339844	18535.250000
1346.290039	18816.974609
1345.239258	19112.857422
1344.188477	19877.294922
1343.137695	20377.386719
1342.085938	20620.435547
1341.034180	20725.478516
1339.982422	21149.007813
1338.930664	21591.369141
1337.878906	22128.589844
1336.826172	22033.671875
1335.773438	22019.546875
1334.720703	22102.785156
1333.667969	21870.230469
1332.614258	21943.966797
1331.561523	21592.884766
1330.507813	21272.792969
1329.453125	21142.601563
1328.399414	20497.826172
1327.344727	19910.224609
1326.290039	20005.607422
1325.235352	19451.535156
1324.180664	19196.267578
1323.125000	18910.306641
1322.070313	19027.130859
1321.014648	18620.548828
1319.958008	18486.412109
1318.902344	18484.890625
1317.845703	18130.742188
1316.789063	17954.199219
1315.732422	17780.095703
1314.675781	17814.195313
1313.618164	17562.160156
1312.560547	17388.244141
1311.502930	17143.492188
1310.445313	17035.904297
1309.386719	16592.863281
1308.329102	16525.591797
1307.270508	16191.478516
1306.210938	16417.099609
1305.152344	16061.902344
1304.092773	15702.133789
1303.033203	15915.912109
1301.973633	16009.283203
1300.914063	15659.183594
1299.853516	15594.569336
1298.792969	15393.236328
1297.732422	15281.559570
1296.671875	15212.348633
1295.611328	15364.647461
1294.549805	15344.915039
1293.488281	15294.573242
1292.426758	14968.752930
1291.364258	15186.886719
1290.302734	15230.753906
1289.240234	15088.699219
1288.177734	14934.939453
1287.114258	15124.666016
1286.051758	15170.856445
1284.988281	14977.203125
1283.924805	15383.061523
1282.861328	15640.684570
1281.796875	15613.880859
1280.732422	15796.168945
1279.667969	16086.418945
1278.603516	16395.332031
1277.539063	16577.333984
1276.473633	16522.189453
1275.408203	17088.951172
1274.342773	17230.802734
1273.277344	17403.085938
1272.210938	16937.388672
1271.145508	17154.208984
1270.079102	17059.152344
1269.011719	16659.443359
1267.945313	16541.095703
1266.877930	16509.478516
1265.810547	16306.887695
1264.743164	15629.000977
1263.674805	15407.950195
1262.607422	15495.974609
1261.539063	15031.653320
1260.470703	14890.418945
1259.401367	14573.795898
1258.333008	14682.966797
1257.263672	14443.684570
1256.194336	14438.282227
1255.125000	14152.404297
1254.054688	14006.855469
1252.985352	14104.343750
1251.915039	14243.834961
1250.843750	13829.792969
1249.773438	13957.606445
1248.702148	13912.624023
1247.630859	13944.676758
1246.559570	13876.379883
1245.488281	14029.732422
1244.416016	13884.477539
1243.343750	13646.008789
1242.271484	13782.989258
1241.199219	13707.801758
1240.125977	13765.476563
1239.053711	13762.548828
1237.980469	13855.125000
1236.906250	13966.291992
1235.833008	13977.291016
1234.758789	13790.413086
1233.684570	13864.281250
1232.610352	13812.464844
1231.536133	13811.849609
1230.460938	13901.944336
1229.385742	13815.268555
1228.310547	14056.441406
1227.235352	13851.221680
1226.159180	13780.875977
1225.083008	13826.730469
1224.006836	13754.094727
1222.930664	13906.765625
1221.853516	13585.694336
1220.777344	13675.654297
1219.700195	13902.511719
1218.622070	13579.322266
1217.544922	13975.458008
1216.466797	14158.032227
1215.388672	13969.492188
1214.310547	13799.579102
1213.232422	13914.849609
1212.153320	14085.689453
1211.074219	13992.318359
1209.995117	14100.520508
1208.916016	14266.576172
1207.835938	14143.120117
1206.755859	13954.896484
1205.675781	14042.178711
1204.595703	13932.731445
1203.514648	13959.827148
1202.434570	13933.710938
1201.353516	13926.105469
1200.271484	13969.366211
1199.190430	14035.723633
1198.108398	13993.430664
1197.026367	13777.864258
1195.944336	13860.386719
1194.862305	13674.961914
1193.779297	13708.978516
1192.696289	13477.492188
1191.613281	13691.564453
1190.530273	13430.179688
1189.446289	13427.301758
1188.362305	13364.451172
1187.278320	13253.198242
1186.194336	13287.246094
1185.109375	13113.817383
1184.024414	13145.573242
1182.939453	13066.716797
1181.854492	13156.058594
1180.768555	13270.694336
1179.683594	13166.529297
1178.597656	12951.904297
1177.510742	12781.101563
1176.424805	13068.303711
1175.337891	13056.292969
1174.250977	12968.381836
1173.164063	12846.011719
1172.077148	12937.516602
1170.989258	13130.124023
1169.901367	12794.062500
1168.813477	12968.234375
1167.724609	12827.612305
1166.636719	12822.556641
1165.547852	12709.579102
1164.458984	12947.894531
1163.369141	12958.878906
1162.280273	13192.447266
1161.190430	12932.651367
1160.100586	12783.066406
1159.010742	12966.066406
1157.919922	12722.533203
1156.829102	12951.311523
1155.738281	12868.307617
1154.647461	13069.458008
1153.555664	13112.456055
1152.464844	13308.884766
1151.373047	13374.708008
1150.280273	13454.238281
1149.188477	13554.332031
1148.095703	13279.097656
1147.002930	13392.910156
1145.910156	13268.791016
1144.817383	13272.787109
1143.723633	13304.215820
1142.629883	13269.340820
1141.536133	13282.471680
1140.441406	13332.154297
1139.347656	13486.894531
1138.252930	13168.804688
1137.158203	12981.004883
1136.062500	12916.560547
1134.967773	13351.986328
1133.872070	13047.887695
1132.776367	13136.321289
1131.679688	13131.198242
1130.583984	13187.647461
1129.487305	13148.314453
1128.390625	12981.349609
1127.292969	13119.832031
1126.196289	13016.739258
1125.098633	12893.189453
1124.000977	13058.927734
1122.903320	13169.946289
1121.804688	12905.297852
1120.706055	13020.851563
1119.607422	13015.752930
1118.508789	12965.156250
1117.409180	12839.521484
1116.310547	12929.970703
1115.210938	12929.438477
1114.110352	12910.721680
1113.010742	12973.823242
1111.910156	12809.692383
1110.809570	12756.937500
1109.708984	13156.141602
1108.607422	12901.253906
1107.506836	12882.560547
1106.405273	12966.004883
1105.303711	12745.356445
1104.201172	12649.575195
1103.098633	12814.663086
1101.996094	12827.750000
1100.893555	12618.654297
1099.791016	12618.175781
1098.687500	12314.038086
1097.583984	12472.217773
1096.480469	12628.061523
1095.376953	12410.172852
1094.272461	12475.395508
1093.167969	12542.851563
1092.063477	12422.436523
1090.958008	12557.751953
1089.853516	12690.746094
1088.748047	12412.056641
1087.642578	12569.895508
1086.536133	12698.274414
1085.430664	12496.609375
1084.324219	12480.326172
1083.217773	12563.453125
1082.110352	12603.627930
1081.003906	12749.920898
1079.896484	12638.767578
1078.789063	12356.111328
1077.680664	12484.304688
1076.573242	12267.235352
1075.464844	12348.018555
1074.356445	12500.934570
1073.247070	12398.994141
1072.138672	12565.355469
1071.029297	12639.237305
1069.919922	12433.678711
1068.809570	12570.633789
1067.700195	12585.903320
1066.589844	12502.084961
1065.479492	12542.125000
1064.368164	12456.099609
1063.257813	12482.627930
1062.146484	12556.390625
1061.035156	12312.960938
1059.922852	12708.313477
1058.811523	12410.994141
1057.699219	12563.378906
1056.586914	12353.867188
1055.473633	12555.626953
1054.361328	12489.976563
1053.248047	12356.975586
1052.134766	12444.083008
1051.021484	12293.189453
1049.907227	12505.958008
1048.792969	12283.308594
1047.678711	12381.569336
1046.564453	12412.496094
1045.449219	12562.258789
1044.333984	12622.276367
1043.218750	12543.293945
1042.103516	12571.913086
1040.987305	12315.976563
1039.871094	12564.150391
1038.754883	12547.953125
1037.638672	12480.263672
1036.521484	12459.612305
1035.404297	12649.342773
1034.287109	12496.646484
1033.169922	12632.594727
1032.051758	12672.310547
1030.933594	12528.650391
1029.815430	12608.609375
1028.697266	12652.770508
1027.578125	12582.948242
1026.458984	12790.182617
1025.339844	12689.086914
1024.220703	12655.028320
1023.100586	12817.454102
1021.980469	12872.665039
1020.860352	12865.365234
1019.740234	12862.529297
1018.619141	12774.928711
1017.498047	12798.874023
1016.376953	12796.050781
1015.255859	12866.791016
1014.133789	12839.436523
1013.011719	12852.200195
1011.889648	12755.800781
1010.767578	12926.707031
1009.644531	12823.650391
1008.521484	12776.293945
1007.398438	12873.629883
1006.274414	12768.425781
1005.151367	12685.513672
1004.027344	12589.291016
1002.902344	12751.067383
1001.778320	12681.549805
1000.653320	12663.186523
999.528320	12598.162109
998.403320	12777.562500
997.278320	12528.170898
996.152344	12512.073242
995.026367	12622.541016
993.900391	12471.017578
992.773438	12608.075195
991.646484	12700.694336
990.519531	12606.928711
989.392578	12728.335938
988.265625	12605.778320
987.137695	12543.128906
986.009766	12673.332031
984.881836	12444.500977
983.752930	12621.189453
982.624023	12618.390625
981.495117	12613.377930
980.366211	12672.570313
979.236328	12592.287109
978.106445	12582.854492
976.976563	12478.288086
975.846680	12358.283203
974.715820	12523.611328
973.585938	12458.922852
972.454102	12467.208008
971.323242	12364.988281
970.191406	12483.763672
969.060547	12450.063477
967.927734	12520.177734
966.795898	12552.722656
965.663086	12618.365234
964.530273	12646.458008
963.397461	12484.771484
962.264648	12799.669922
961.130859	12862.989258
959.997070	13016.688477
958.863281	12976.312500
957.729492	13090.241211
956.594727	13080.715820
955.459961	12751.738281
954.325195	12863.435547
953.189453	12926.633789
952.053711	12692.579102
950.917969	12522.460938
949.782227	12495.461914
948.646484	12387.067383
947.509766	12360.108398
946.373047	12469.511719
945.235352	12565.671875
944.098633	12321.063477
942.960938	12344.686523
941.823242	12328.748047
940.685547	12440.227539
939.546875	12415.487305
938.408203	12555.440430
937.269531	12596.541016
936.129883	12639.818359
934.991211	12612.856445
933.851563	12781.155273
932.711914	12789.265625
931.571289	12810.528320
930.431641	12818.625000
929.291016	12717.125977
928.149414	12734.003906
927.008789	12823.171875
925.867188	12631.929688
924.725586	12631.292969
923.583984	12740.125000
922.441406	12485.548828
921.299805	12699.407227
920.157227	12318.050781
919.013672	12229.982422
917.871094	12214.121094
916.727539	12150.163086
915.583984	12033.770508
914.439453	11913.057617
913.295898	12010.896484
912.151367	11999.465820
911.006836	12167.127930
909.861328	12092.342773
908.716797	12098.362305
907.571289	12043.267578
906.424805	11876.911133
905.279297	11968.052734
904.132813	11838.864258
902.986328	12058.625977
901.839844	11981.794922
900.692383	12042.312500
899.545898	12104.980469
898.398438	12141.476563
897.250000	12082.117188
896.102539	12151.263672
894.954102	11904.691406
893.805664	12180.628906
892.656250	11995.090820
891.507813	12007.623047
890.358398	11970.119141
889.208984	12263.187500
888.058594	12075.619141
886.908203	11833.791016
885.758789	11839.821289
884.607422	11711.135742
883.457031	11960.482422
882.305664	12038.144531
881.154297	11883.443359
880.002930	11902.474609
878.850586	11823.832031
877.698242	11736.544922
876.545898	11640.619141
875.393555	11926.451172
874.240234	11739.452148
873.086914	11517.851563
871.933594	11714.652344
870.780273	11666.505859
869.625977	11655.208008
868.471680	11854.007813
867.317383	11652.114258
866.162109	11688.454102
865.007813	11597.073242
863.852539	11789.210938
862.696289	11676.211914
861.541016	11643.293945
860.384766	11657.963867
859.228516	11709.379883
858.072266	11728.349609
856.915039	11559.299805
855.757813	11543.724609
854.600586	11484.954102
853.442383	11607.611328
852.285156	11462.488281
851.126953	11572.142578
849.968750	11558.734375
848.809570	11551.803711
847.650391	11506.047852
846.491211	11447.372070
845.332031	11524.557617
844.171875	11614.642578
843.012695	11555.978516
841.851563	11415.462891
840.691406	11561.515625
839.530273	11651.505859
838.369141	11455.078125
837.208008	11620.394531
836.046875	11381.015625
834.884766	11473.113281
833.722656	11455.453125
832.560547	11579.751953
831.397461	11516.917969
830.234375	11430.463867
829.071289	11356.944336
827.908203	11474.702148
826.744141	11553.735352
825.580078	11564.000000
824.416016	11529.165039
823.251953	11444.967773
822.086914	11375.831055
820.921875	11574.962891
819.756836	11570.188477
818.590820	11571.850586
817.425781	11607.821289
816.259766	11362.917969
815.092773	11463.222656
813.926758	11473.475586
812.759766	11584.418945
811.592773	11380.437500
810.424805	11307.180664
809.257813	11326.019531
808.089844	11464.719727
806.920898	11337.988281
805.752930	11350.386719
804.583984	11373.472656
803.415039	11492.784180
802.246094	11310.568359
801.076172	11417.011719
799.906250	11247.716797
798.736328	11238.746094
797.566406	11236.186523
796.395508	11325.460938
795.224609	11365.584961
794.053711	11414.228516
792.881836	11392.419922
791.710938	11349.283203
790.538086	11651.750000
789.366211	11634.165039
788.194336	11772.242188
787.021484	11507.348633
785.848633	11643.258789
784.674805	11499.970703
783.500977	11535.693359
782.327148	11639.553711
781.153320	11451.644531
779.979492	11478.834961
778.804688	11191.012695
777.629883	11424.654297
776.454102	11460.339844
775.279297	11404.549805
774.103516	11355.164063
772.927734	11369.579102
771.750977	11352.103516
770.575195	11277.260742
769.398438	11357.540039
768.220703	11331.581055
767.043945	11433.043945
765.866211	11317.910156
764.688477	11349.283203
763.510742	11431.571289
762.332031	11422.592773
761.153320	11445.434570
759.974609	11512.796875
758.794922	11679.773438
757.616211	11814.877930
756.436523	11704.097656
755.255859	11805.234375
754.076172	12029.178711
752.895508	12348.316406
751.714844	12373.013672
750.533203	12710.974609
749.352539	12959.898438
748.170898	13293.336914
746.988281	13903.722656
745.806641	14716.848633
744.624023	15683.945313
743.441406	17151.574219
742.258789	19062.330078
741.075195	21187.720703
739.891602	23975.419922
738.708008	26322.568359
737.523438	29042.355469
736.339844	30393.017578
735.155273	30938.982422
733.969727	31104.904297
732.785156	30192.808594
731.599609	28121.187500
730.414063	26480.648438
729.227539	24008.195313
728.041992	21697.044922
726.855469	19523.914063
725.667969	17806.794922
724.481445	16499.042969
723.293945	15431.928711
722.106445	14375.828125
720.918945	13856.892578
719.730469	13315.047852
718.541992	12851.288086
717.353516	12583.334961
716.164063	12277.655273
714.975586	12045.693359
713.786133	11839.057617
712.595703	11479.125000
711.406250	11589.927734
710.215820	11488.550781
709.025391	11082.748047
707.833984	11195.662109
706.642578	11073.455078
705.451172	10957.597656
704.259766	11116.613281
703.068359	11019.673828
701.875977	11038.108398
700.683594	11094.268555
699.490234	11093.812500
698.297852	11078.687500
697.104492	11180.886719
695.910156	11264.187500
694.716797	11125.484375
693.522461	11294.592773
692.328125	11340.132813
691.132813	11245.448242
689.938477	11462.528320
688.743164	11545.644531
687.547852	11524.165039
686.351563	11569.595703
685.155273	11610.823242
683.958984	11635.314453
682.762695	11317.166016
681.565430	11496.276367
680.368164	11316.126953
679.170898	11300.992188
677.973633	11085.486328
676.775391	11185.183594
675.577148	11176.346680
674.378906	11288.490234
673.179688	11269.204102
671.980469	11270.775391
670.781250	11253.585938
669.581055	11292.667969
668.381836	11058.803711
667.181641	11252.048828
665.980469	11316.091797
664.780273	11536.252930
663.579102	11458.657227
662.377930	11354.042969
661.175781	11413.838867
659.973633	11567.208984
658.771484	11670.597656
657.569336	12013.034180
656.367188	11767.061523
655.164063	12030.346680
653.960938	12295.586914
652.756836	12263.666992
651.552734	12543.266602
650.348633	12442.787109
649.144531	12578.987305
647.939453	12528.350586
646.735352	12676.916016
645.529297	12512.191406
644.324219	12662.763672
643.118164	12769.724609
641.912109	12679.712891
640.706055	12792.835938
639.499023	12522.603516
638.292969	12445.137695
637.084961	12560.304688
635.877930	12451.807617
634.669922	12506.888672
633.461914	12663.348633
632.253906	12296.270508
631.044922	12407.198242
629.836914	12400.192383
628.626953	12277.403320
627.417969	12320.041016
626.208008	12141.526367
624.998047	12093.261719
623.788086	11954.128906
622.577148	11945.166992
621.366211	11903.173828
620.155273	11842.620117
618.944336	11548.887695
617.732422	11308.935547
616.520508	11213.491211
615.308594	11254.205078
614.095703	11167.063477
612.882813	11133.557617
611.669922	11108.309570
610.457031	11177.853516
609.243164	10923.950195
608.029297	10822.566406
606.815430	10741.818359
605.600586	10807.261719
604.385742	10798.584961
603.170898	10748.759766
601.955078	10801.811523
600.740234	10863.064453
599.524414	10825.593750
598.307617	10703.857422
597.091797	10750.702148
595.875000	10698.898438
594.658203	10815.565430
593.440430	10656.973633
592.222656	10594.958984
591.004883	10666.404297
589.787109	10715.241211
588.568359	10597.853516
587.349609	10810.792969
586.130859	10701.639648
584.912109	10658.150391
583.692383	10903.724609
582.472656	10933.988281
581.251953	11099.472656
580.032227	11109.190430
578.811523	10877.232422
577.589844	11116.325195
576.369141	11164.924805
575.147461	11135.730469
573.925781	11055.393555
572.703125	11298.312500
571.481445	11258.877930
570.258789	11477.098633
569.035156	11237.301758
567.812500	11369.585938
566.588867	11381.251953
565.365234	11368.397461
564.140625	11443.370117
562.916992	11506.056641
561.692383	11374.777344
560.466797	11310.910156
559.242188	11263.395508
558.016602	11383.182617
556.791016	11439.687500
555.564453	11192.347656
554.337891	11173.441406
553.111328	11083.210938
551.884766	11264.025391
550.657227	11198.259766
549.429688	10857.571289
548.202148	10981.296875
546.974609	11056.106445
545.746094	11051.504883
544.517578	11146.610352
543.288086	11091.130859
542.058594	11245.163086
540.829102	11289.320313
539.599609	11213.515625
538.370117	11355.215820
537.139648	11053.880859
535.909180	11356.039063
534.677734	11264.038086
533.446289	11038.062500
532.214844	11124.823242
530.983398	11057.293945
529.750977	11072.989258
528.519531	10952.755859
527.286133	10854.887695
526.053711	10980.114258
524.820313	10689.695313
523.586914	10796.659180
522.353516	11015.020508
521.119141	10907.119141
519.884766	10841.800781
518.650391	11066.071289
517.415039	10816.522461
516.179688	10876.752930
514.944336	10795.311523
513.708984	10829.219727
