#Wave	#Intensity
2109.007813	8322.522461
2107.496094	8301.021484
2105.984375	8401.74707
2104.470703	8469.365234
2102.958984	8127.047852
2101.445313	8270.710938
2099.933594	8189.621582
2098.419922	8430.664063
2096.90625	8359.483398
2095.390625	8296.589844
2093.876953	8298.100586
2092.361328	8362.324219
2090.845703	8368.770508
2089.332031	8307.579102
2087.814453	8177.143555
2086.298828	8205.061523
2084.783203	8191.753418
2083.265625	8097.688477
2081.748047	8341.475586
2080.230469	8222.706055
2078.712891	8159.991699
2077.195313	8276.804688
2075.677734	8172.943848
2074.158203	8200.81543
2072.638672	8077.26709
2071.119141	8179.188965
2069.599609	8177.430664
2068.080078	8152.647461
2066.560547	8091.700195
2065.039063	8159.008301
2063.517578	8168.76123
2061.996094	8160.434082
2060.474609	8258.899414
2058.953125	8191.424316
2057.429688	8176.528809
2055.908203	8089.398438
2054.384766	8105.719238
2052.861328	8099.057617
2051.337891	8064.504883
2049.814453	8187.449707
2048.289063	8144.692871
2046.765625	8090.475586
2045.240234	8151.039063
2043.714844	8065.702148
2042.189453	8121.329102
2040.664063	8108.12207
2039.136719	8017.935059
2037.609375	8065.347656
2036.083984	8150.397949
2034.556641	8037.342773
2033.029297	8117.452637
2031.5	8084.628418
2029.972656	8100.894531
2028.443359	8153.135254
2026.914063	8138.311035
2025.386719	7955.10498
2023.855469	8116.854004
2022.326172	7974.584473
2020.796875	7981.049805
2019.265625	7998.946777
2017.734375	8049.498047
2016.203125	7871.443359
2014.671875	7907.308594
2013.140625	7856.659668
2011.607422	8008.362793
2010.076172	7938.137695
2008.542969	7982.112793
2007.009766	8070.09668
2005.476563	7862.95752
2003.943359	7897.140137
2002.408203	8033.973633
2000.875	7893.774414
1999.339844	7893.721191
1997.804688	8041.867676
1996.269531	7916.410156
1994.732422	7885.422363
1993.197266	7790.974121
1991.660156	7979.695313
1990.123047	8051.204102
1988.585938	7968.166016
1987.048828	7899.79834
1985.511719	7876.981934
1983.972656	7951.702148
1982.435547	7794.000977
1980.896484	7818.339355
1979.357422	7953.126953
1977.818359	7844.247559
1976.279297	7821.471191
1974.738281	7887.990723
1973.197266	7814.900391
1971.658203	7912.223633
1970.117188	7819.691406
1968.576172	7766.125977
1967.033203	7800.152344
1965.492188	7911.987305
1963.949219	7733.621582
1962.40625	7872.973145
1960.863281	7787.047363
1959.320313	7740.036133
1957.777344	7704.381348
1956.232422	7714.081055
1954.689453	7657.401367
1953.144531	7722.137207
1951.599609	7783.608887
1950.054688	7699.446289
1948.507813	7904.856445
1946.962891	7749.547363
1945.416016	7715.566895
1943.869141	7869.114258
1942.322266	7806.031738
1940.775391	7704.196289
1939.228516	7736.488281
1937.679688	7773.611328
1936.132813	7560.426758
1934.583984	7634.703125
1933.035156	7670.209473
1931.486328	7744.431152
1929.935547	7594.355957
1928.386719	7562.098633
1926.835938	7549.20752
1925.285156	7615.329102
1923.734375	7753.964355
1922.183594	7742.652344
1920.632813	7583.098633
1919.080078	7457.443848
1917.527344	7586.330566
1915.976563	7662.020996
1914.423828	7613.708984
1912.869141	7576.68457
1911.316406	7578.299805
1909.761719	7542.907227
1908.208984	7608.874023
1906.654297	7584.747559
1905.099609	7623.341797
1903.544922	7547.77832
1901.988281	7438.493652
1900.433594	7385.498047
1898.876953	7531.743164
1897.320313	7560.668945
1895.763672	7608.853516
1894.207031	7567.104492
1892.648438	7448.321777
1891.091797	7477.239746
1889.533203	7443.567383
1887.974609	7483.703613
1886.416016	7446.835938
1884.857422	7509.40332
1883.298828	7397.194336
1881.738281	7530.271484
1880.177734	7331.568848
1878.617188	7475.818359
1877.056641	7366.914551
1875.496094	7365.357422
1873.935547	7274.135254
1872.373047	7415.072266
1870.810547	7405.50293
1869.248047	7399.137207
1867.685547	7333.581055
1866.123047	7335.230469
1864.560547	7349.672363
1862.996094	7389.688477
1861.431641	7234.673828
1859.867188	7373.78125
1858.302734	7253.986816
1856.738281	7201.335449
1855.171875	7509.655762
1853.607422	7383.52002
1852.041016	7303.734863
1850.474609	7299
1848.908203	7362.884766
1847.341797	7412.383301
1845.773438	7154.007324
1844.207031	7209.907715
1842.638672	7216.357422
1841.070313	7305.695801
1839.501953	7289.80957
1837.931641	7318.544922
1836.363281	7286.730469
1834.792969	7309.083008
1833.222656	7355.311523
1831.652344	7164.302246
1830.082031	7290.12793
1828.511719	7342.695801
1826.941406	7209.087402
1825.369141	7304.599121
1823.796875	7190.13916
1822.224609	7290.384277
1820.652344	7118.745117
1819.078125	7315.914551
1817.505859	7349.328613
1815.931641	7279.461914
1814.357422	7323.987793
1812.783203	7312.913086
1811.208984	7314.543945
1809.634766	7135.214355
1808.058594	7335.260742
1806.484375	7168.695313
1804.908203	7037.099609
1803.332031	7140.291504
1801.753906	7246.61084
1800.177734	7172.153809
1798.601563	7275.250977
1797.023438	7229.343262
1795.445313	7123.249023
1793.867188	7194.609375
1792.289063	7156.665527
1790.708984	7150.403809
1789.130859	7209.04834
1787.550781	7285.077148
1785.970703	7095.239258
1784.390625	7104.814453
1782.810547	7171.326172
1781.228516	7149.253906
1779.646484	7239.442383
1778.066406	7176.266602
1776.484375	7135.242188
1774.902344	7166.915039
1773.318359	7138.546387
1771.736328	7040.69873
1770.152344	7200.269531
1768.568359	7129.286621
1766.984375	7069.381836
1765.400391	7083.668457
1763.816406	6993.821777
1762.230469	7224.212891
1760.646484	7115.449707
1759.060547	7162.822754
1757.474609	7102.984375
1755.888672	7103.05957
1754.300781	7118.890625
1752.714844	7252.865234
1751.126953	7237.156738
1749.539063	7171.06543
1747.951172	7188.441406
1746.363281	7186.921875
1744.775391	7061.082031
1743.185547	7168.149902
1741.595703	7270.452637
1740.007813	7160.400879
1738.416016	7251.654785
1736.826172	7305.141602
1735.236328	7212.439453
1733.644531	7239.198242
1732.052734	7258.090332
1730.462891	7236.13623
1728.869141	7256.590332
1727.277344	7253.484863
1725.685547	7237.823242
1724.091797	7291.219238
1722.498047	7278.693359
1720.904297	7281.859375
1719.310547	7435.585449
1717.716797	7368.154785
1716.121094	7349.350586
1714.527344	7579.764648
1712.931641	7471.602051
1711.335938	7471.586914
1709.740234	7427.713379
1708.142578	7576.47998
1706.546875	7496.59082
1704.949219	7527.875977
1703.351563	7667.135254
1701.753906	7652.993652
1700.15625	7684.224609
1698.558594	7684.161133
1696.958984	7779.483398
1695.359375	7785.652344
1693.759766	7824.64209
1692.160156	7660.460938
1690.560547	7758.830566
1688.960938	7710.324219
1687.359375	7811.76416
1685.757813	7763.266113
1684.15625	7777.230957
1682.554688	7930.095215
1680.953125	7811.383301
1679.349609	7875.25
1677.748047	7896.976074
1676.144531	7945.202148
1674.541016	8023.029785
1672.9375	8060.296875
1671.332031	8074.170898
1669.728516	8228.266602
1668.123047	8296.620117
1666.517578	8350.926758
1664.912109	8377.181641
1663.306641	8450.12793
1661.701172	8479.462891
1660.09375	8616.15625
1658.486328	8835.24707
1656.878906	8957.806641
1655.271484	8879.703125
1653.664063	9006.864258
1652.056641	9102.881836
1650.447266	9292.105469
1648.837891	9241.962891
1647.228516	9500.981445
1645.619141	9446.155273
1644.009766	9534.209961
1642.398438	9626.884766
1640.789063	9579.826172
1639.177734	9773.317383
1637.566406	9938.799805
1635.955078	10068.53418
1634.341797	10207.517578
1632.730469	10208.447266
1631.117188	10359.741211
1629.503906	10428.830078
1627.890625	10782.996094
1626.277344	10834.922852
1624.662109	10752.076172
1623.048828	11020.777344
1621.433594	11266.140625
1619.818359	11624.392578
1618.203125	11358.837891
1616.587891	11466.269531
1614.970703	11785.575195
1613.353516	11897.507813
1611.738281	12232.046875
1610.121094	12397.94043
1608.501953	12620.948242
1606.884766	12989.111328
1605.267578	13397.282227
1603.648438	13468.56543
1602.029297	13711.225586
1600.410156	13791.672852
1598.791016	13895.237305
1597.169922	13623.749023
1595.550781	13613.12793
1593.929688	13596.339844
1592.308594	13429.958984
1590.6875	13271.358398
1589.064453	12930.915039
1587.443359	12897.329102
1585.820313	13111.847656
1584.197266	13061.288086
1582.574219	13058.499023
1580.951172	12886.314453
1579.328125	12818.897461
1577.703125	12899.279297
1576.080078	12956.542969
1574.455078	13043.013672
1572.830078	12857.166992
1571.203125	13085.114258
1569.578125	13080.779297
1567.951172	12944.234375
1566.324219	13010.629883
1564.697266	12868.009766
1563.070313	12966.654297
1561.443359	13000.744141
1559.816406	12873.571289
1558.1875	13036.632813
1556.558594	12912.575195
1554.929688	12937.43457
1553.300781	12876.357422
1551.669922	12967.175781
1550.041016	12674.527344
1548.410156	12673.344727
1546.779297	12540.319336
1545.148438	12381.294922
1543.517578	12317.344727
1541.884766	12138.516602
1540.251953	12001.121094
1538.621094	11992.420898
1536.988281	11784.68457
1535.353516	11685.71875
1533.720703	11490.378906
1532.085938	11605.729492
1530.453125	11549.696289
1528.818359	11484.509766
1527.183594	11503.451172
1525.546875	11663.030273
1523.912109	11487.810547
1522.275391	11468.533203
1520.640625	11608.15332
1519.003906	11481.933594
1517.365234	11404.635742
1515.728516	11138.046875
1514.091797	11305.09082
1512.453125	11160.727539
1510.814453	11117.128906
1509.175781	11046.089844
1507.537109	11001.008789
1505.896484	11006.264648
1504.257813	10828.577148
1502.617188	10707.360352
1500.976563	10814.771484
1499.335938	10792.636719
1497.693359	10762.894531
1496.052734	10585.445313
1494.410156	10563.371094
1492.767578	10545.87207
1491.125	10412.716797
1489.482422	10279.618164
1487.837891	10170.916016
1486.195313	10194.577148
1484.550781	10130.03418
1482.90625	10123.288086
1481.261719	10174.299805
1479.617188	10115.878906
1477.970703	10110.65625
1476.324219	10210.241211
1474.677734	10426.714844
1473.03125	10119.290039
1471.384766	10296.220703
1469.738281	10257.573242
1468.089844	10021.693359
1466.441406	10190.943359
1464.792969	10029.493164
1463.144531	10024.291992
1461.496094	9914.489258
1459.845703	9880.515625
1458.197266	10078.399414
1456.546875	9692.924805
1454.896484	9690.827148
1453.244141	9785.646484
1451.59375	9474.668945
1449.941406	9698.155273
1448.291016	9494.77832
1446.638672	9634.945313
1444.984375	9549.65918
1443.332031	9514.316406
1441.679688	9444.211914
1440.025391	9476.933594
1438.371094	9437.092773
1436.716797	9537.797852
1435.0625	9541.770508
1433.40625	9436.992188
1431.75	9302.057617
1430.095703	9375.525391
1428.439453	9264.810547
1426.78125	9139.052734
1425.125	9159.699219
1423.466797	9266.31543
1421.810547	9348.755859
1420.152344	9517.102539
1418.494141	9549.704102
1416.833984	9766.160156
1415.175781	9617.876953
1413.515625	9505.8125
1411.855469	9734.183594
1410.195313	9707.97168
1408.535156	9642.62793
1406.875	9824.157227
1405.212891	10034.198242
1403.550781	10196.00293
1401.888672	10350.21582
1400.226563	10541.956055
1398.564453	10653.924805
1396.900391	10460.697266
1395.238281	10260.038086
1393.574219	10304.378906
1391.910156	10320.157227
1390.244141	10260.833984
1388.580078	10136.96875
1386.914063	9966.619141
1385.248047	9859.379883
1383.582031	9719.174805
1381.916016	9867.075195
1380.25	9861.919922
1378.582031	9595.837891
1376.916016	9838.119141
1375.248047	9816.482422
1373.578125	9809.839844
1371.910156	9963.514648
1370.242188	9916.396484
1368.572266	9891.761719
1366.902344	10022.855469
1365.232422	10120.958008
1363.5625	10145.681641
1361.890625	10092.584961
1360.220703	10147.22168
1358.548828	10186.875977
1356.876953	10177.166992
1355.205078	10252.675781
1353.53125	10238.470703
1351.859375	10358.760742
1350.185547	10608.976563
1348.511719	10658.928711
1346.837891	10696.910156
1345.164063	11070.804688
1343.488281	11438.564453
1341.8125	11650.954102
1340.138672	11996.041016
1338.460938	12400.644531
1336.785156	12727.516602
1335.109375	13063.19043
1333.431641	13368.900391
1331.753906	13403.220703
1330.076172	13444.975586
1328.398438	13366.041016
1326.720703	13520.978516
1325.041016	13489.709961
1323.361328	13382.526367
1321.681641	13305.158203
1320.001953	13214.428711
1318.322266	12894.620117
1316.640625	12750.470703
1314.960938	12592.999023
1313.279297	12071.330078
1311.597656	11836.779297
1309.914063	11351.171875
1308.232422	11156.99707
1306.548828	11029.754883
1304.865234	11003.557617
1303.181641	10765.040039
1301.498047	10692.891602
1299.814453	10531.723633
1298.128906	10243.014648
1296.443359	10144.322266
1294.757813	10017.492188
1293.072266	9821.022461
1291.386719	9900.390625
1289.699219	9758.873047
1288.011719	9694.475586
1286.324219	9473.060547
1284.636719	9589.462891
1282.949219	9335.586914
1281.259766	9373.496094
1279.572266	9322.572266
1277.882813	9336.786133
1276.193359	9259.258789
1274.501953	9325.25293
1272.8125	9323.185547
1271.121094	9185.086914
1269.429688	9296.876953
1267.738281	9052.431641
1266.046875	9116.916016
1264.353516	9007.050781
1262.662109	8963.696289
1260.96875	8963.182617
1259.275391	8924.285156
1257.582031	8923.77832
1255.886719	9116.582031
1254.193359	8968.499023
1252.498047	9140.554688
1250.802734	9315.483398
1249.107422	9086.363281
1247.410156	9162.464844
1245.714844	9228.21582
1244.017578	9376.444336
1242.320313	9418.547852
1240.623047	9136.637695
1238.925781	9231.780273
1237.226563	9089.878906
1235.527344	9187.930664
1233.828125	8909.261719
1232.128906	8932.28418
1230.429688	8906.760742
1228.728516	8953.297852
1227.029297	8827.814453
1225.328125	8792.041016
1223.626953	8828.283203
1221.923828	8655.897461
1220.222656	8521.776367
1218.519531	8599.168945
1216.816406	8488.608398
1215.113281	8386.902344
1213.410156	8424.649414
1211.707031	8278.987305
1210.001953	8316.740234
1208.296875	8440.996094
1206.591797	8333.545898
1204.886719	8196.826172
1203.179688	8227.232422
1201.474609	8323.556641
1199.767578	8334.875977
1198.060547	8142.624512
1196.353516	8032.45166
1194.644531	8179.964355
1192.9375	8072.757813
1191.228516	8126.549316
1189.519531	8244.681641
1187.810547	8323.271484
1186.099609	8249.756836
1184.390625	8277.142578
1182.679688	8294.285156
1180.96875	8339.182617
1179.257813	8319.779297
1177.544922	8418.689453
1175.833984	8245.951172
1174.121094	8120.005859
1172.408203	8296.249023
1170.695313	8295.84375
1168.982422	8334.828125
1167.267578	8213.348633
1165.552734	8170.669434
1163.837891	8161.541016
1162.123047	8062.043945
1160.408203	8003.39502
1158.691406	7800.533203
1156.976563	7857.041504
1155.259766	7871.290527
1153.541016	7687.520508
1151.824219	7681.420898
1150.107422	7643.306152
1148.388672	7469.894531
1146.669922	7462.390625
1144.951172	7518.880371
1143.230469	7521.545898
1141.511719	7463.154785
1139.791016	7420.776367
1138.070313	7323.201172
1136.349609	7421.782715
1134.628906	7417.201172
1132.90625	7353.087402
1131.185547	7293.357422
1129.462891	7397.658691
1127.740234	7426.458008
1126.015625	7349.34082
1124.292969	7270.807129
1122.568359	7296.712891
1120.84375	7324.056152
1119.119141	7320.948242
1117.394531	7270.021973
1115.667969	7242.297363
1113.941406	7292.799805
1112.214844	7147.786133
1110.488281	7166.43457
1108.761719	7125.729004
1107.033203	7145.819336
1105.306641	7090.667969
1103.578125	7131.005859
1101.849609	7046.958496
1100.119141	7041.021484
1098.390625	7049.541504
1096.660156	7091.294434
1094.929688	7133.027832
1093.199219	7038.960449
1091.46875	6885.724609
1089.736328	6991.002441
1088.003906	6972.091309
1086.273438	6935.869629
1084.539063	6911.206543
1082.806641	6978.874512
1081.074219	6939.789551
1079.339844	6998.767578
1077.605469	6968.34375
1075.871094	6936.491699
1074.134766	6898.889648
1072.400391	6903.080078
1070.664063	6947.59375
1068.927734	6820.740234
1067.191406	6934.349609
1065.455078	6919.814941
1063.716797	6995.9375
1061.978516	6899.395508
1060.240234	6994.183105
1058.501953	6866.050293
1056.763672	6917.67334
1055.023438	6848.54248
1053.283203	6868.531738
1051.542969	6812.371582
1049.802734	6849.594238
1048.0625	6938.493652
1046.320313	6926.85791
1044.578125	6932.450195
1042.835938	6807.458008
1041.09375	6851.808594
1039.351563	6811.514648
1037.607422	6904.597656
1035.863281	6970.398438
1034.119141	6911.469727
1032.375	6876.927734
1030.628906	6989.965332
1028.884766	6903.855957
1027.138672	6992.490234
1025.392578	6972.275391
1023.646484	6904.834473
1021.898438	6964.784668
1020.152344	6845.870117
1018.404297	6864.324219
1016.65625	6765.506348
1014.90625	6992.706543
1013.158203	6995.38916
1011.408203	7029.508789
1009.658203	6876.449219
1007.908203	6853.443359
1006.158203	6893.282227
1004.40625	6933.102539
1002.65625	6904.387695
1000.904297	6884.247559
999.150391	6961.135742
997.398438	6855.404785
995.646484	6789.652832
993.892578	6719.65332
992.138672	6722.382324
990.384766	6700.882813
988.628906	6732.109375
986.875	6759.047852
985.119141	6652.10498
983.363281	6684.742676
981.607422	6649.038574
979.849609	6784.127441
978.09375	6801.059082
976.335938	6761.083496
974.578125	6756.679199
972.820313	6753.697754
971.060547	6720.865723
969.300781	6818.796387
967.542969	6956.464844
965.78125	6763.087891
964.021484	6902.124512
962.261719	7099.310059
960.5	7063.600586
958.738281	7157.054199
956.976563	7202.222656
955.214844	7204.8125
953.451172	7082.597168
951.6875	7018.570801
949.923828	6863.849609
948.160156	6872.181641
946.396484	6696.311035
944.630859	6653.679199
942.865234	6523.259277
941.099609	6616.614746
939.333984	6494.756348
937.568359	6409.75
935.800781	6456.37207
934.033203	6515.703613
932.265625	6562.27832
930.498047	6526.821289
928.730469	6463.107422
926.960938	6410.728516
925.191406	6413.479492
923.421875	6396.45166
921.652344	6459.933105
919.880859	6449.960938
918.109375	6408.936035
916.337891	6487.893066
914.566406	6456.754395
912.794922	6350.863281
911.021484	6346.566406
909.248047	6428.281738
907.474609	6392.954102
905.701172	6436.566406
903.927734	6353.344727
902.152344	6351.866211
900.376953	6313.77002
898.601563	6434.800781
896.826172	6544.512695
895.050781	6478.248047
893.273438	6487.995605
891.496094	6400.672852
889.71875	6473.721191
887.939453	6216.304688
886.162109	6335.750488
884.382813	6248.541992
882.603516	6252.705078
880.824219	6249.841797
879.044922	6261.023438
877.263672	6214.630371
875.482422	6142.990723
873.701172	6253.833496
871.919922	6215.891602
870.138672	6029.269531
868.355469	6135.852051
866.572266	6089.549805
864.789063	6134.386719
863.005859	6032.04541
861.220703	5963.378906
859.435547	6116.077637
857.650391	5973.195313
855.865234	6034.806641
854.080078	6111.787109
852.292969	5998.394531
850.505859	6062.75293
848.71875	5996.98584
846.931641	5885.096191
845.144531	6005.36377
843.355469	5953.632813
841.566406	6037.489746
839.777344	6045.855957
837.988281	5949.449219
836.197266	6044.419434
834.408203	5985.755859
832.617188	5855.926758
830.824219	5960.619629
829.033203	5885.271973
827.240234	5984.327637
825.449219	5962.003906
823.65625	5851.850098
821.861328	5906.235352
820.068359	5917.391602
818.273438	5935.508301
816.478516	5822.675781
814.683594	5799.025391
812.888672	5992.589355
811.091797	5785.165039
809.296875	5888.181152
807.5	5853.404785
805.701172	5806.125
803.904297	5863.168945
802.105469	5827.03125
800.308594	5778.399414
798.509766	5818.731445
796.708984	5749.282227
794.910156	5770.154297
793.109375	5707.691895
791.308594	5706.348145
789.507813	5799.394043
787.707031	5835.498047
785.904297	5752.265625
784.101563	5712.071777
782.298828	5734.300781
780.496094	5665.01416
778.693359	5660.906738
776.888672	5739.948242
775.083984	5720.583984
773.279297	5681.836426
771.474609	5726.195313
769.667969	5693.001465
767.861328	5803.774902
766.054688	5735.981934
764.248047	5691.739746
762.441406	5756.788574
760.632813	5669.692871
758.824219	5682.179688
757.015625	5744.418945
755.207031	5801.101074
753.398438	5671.24707
751.587891	5903.333496
749.777344	5817.704102
747.966797	5797.001465
746.154297	6005.427734
744.34375	5987.449219
742.53125	6296.440918
740.71875	6591.493652
738.90625	7335.938965
737.091797	8336.453125
735.277344	9475.700195
733.464844	10698.462891
731.648438	11120.241211
729.833984	10860.053711
728.019531	9830.255859
726.203125	8715.592773
724.386719	7693.670898
722.568359	7160.712402
720.751953	6815.097168
718.933594	6531.536621
717.115234	6381.486328
715.296875	6103.660156
713.478516	6106.336914
711.658203	5853.438965
709.839844	5843.809082
708.019531	5585.599121
706.197266	5698.239258
704.376953	5736.697754
702.554688	5567.901855
700.734375	5674.976563
698.910156	5617.388184
697.087891	5592.740723
695.265625	5572.217773
693.441406	5654.513672
691.617188	5581.907227
689.792969	5602.504395
687.966797	5638.159668
686.140625	5620.386719
684.316406	5602.62207
682.490234	5588.97168
680.662109	5661.543945
678.835938	5641.044434
677.007813	5549.425293
675.179688	5552.208984
673.351563	5630.187988
671.521484	5587.842773
669.693359	5637.077637
667.863281	5693.119629
666.033203	5618.006348
664.201172	5682.21875
662.371094	5799.645508
660.539063	5749.12793
658.707031	5914.243652
656.875	5899.193359
655.041016	5952.348633
653.208984	5833.658691
651.375	5946.789063
649.541016	5901.757813
647.705078	5840.395508
645.871094	5789.960938
644.035156	5738.1875
642.199219	5668.736328
640.363281	5784.463867
638.525391	5651.064941
636.689453	5646.99707
634.851563	5691.905762
633.013672	5642.946777
631.173828	5614.407227
629.335938	5705.510254
627.496094	5823.751465
625.65625	5687.844238
623.816406	5610.415039
621.974609	5706.862793
620.132813	5744.878418
618.292969	5698.711914
616.449219	5740.781738
614.607422	5595.587891
612.763672	5458.602539
610.921875	5540.027832
609.078125	5378.713867
607.232422	5403.186035
605.388672	5350.398438
603.542969	5197.373535
601.697266	5319.398926
599.851563	5243.645996
598.005859	5227.500977
596.158203	5173.462891
594.310547	5207.413086
592.462891	5348.22998
590.615234	5252.268555
588.765625	5199.626465
586.916016	5138.897461
585.066406	5175.516602
583.216797	5125.632324
581.367188	5212.223633
579.515625	5242.044434
577.664063	5101.704102
575.8125	5180.137695
573.960938	5168.102051
572.107422	5176.312988
570.253906	5224.991699
568.400391	5161.700195
566.546875	5323.626953
564.693359	5190.239258
562.837891	5183.607422
560.982422	5217.402344
559.126953	5236.362305
557.269531	5198.745605
555.414063	5213.660645
553.556641	5146.450684
551.699219	5188.287598
549.841797	5094.20459
547.982422	5145.449707
546.123047	5136.149414
544.263672	5179.291504
542.404297	5124.282227
540.544922	5180.845215
538.683594	5148.702637
536.822266	5164.933594
534.960938	5185.185059
533.099609	5178.57373
531.236328	5123.641602
529.373047	5060.683105
527.509766	5019.22168
525.646484	5044.847168
523.783203	5193.835938
521.917969	5250.243164
520.052734	5488.916992
518.1875	5324.11377
516.320313	5054.888672
514.455078	4961.257324
512.587891	4957.391113
510.720703	4841.068359
508.853516	4830.539551
506.984375	4794.59082
505.115234	4753.307617
503.246094	4869.870117
501.376953	4755.042969
499.507813	4794.009766
497.636719	4810.236816
495.765625	4787.705078
493.894531	4829.307129
492.021484	4858.868652
490.150391	4911.115723
488.277344	4828.507324
486.404297	4832.688965
484.53125	4764.815918
482.65625	4846.381348
480.78125	4713.187012
478.90625	4724.058105
477.03125	4709.595703
475.15625	4775.103027
473.279297	4735.319336
471.402344	4703.546875
469.525391	4621.183105
467.648438	4705.287109
465.769531	4786.688965
463.890625	4697.708984
462.011719	4789.716797
460.132813	4678.166016
458.251953	4804.708984
456.371094	4705.17334
454.490234	4734.617188
452.609375	4682.984863
450.728516	4735.005371
448.845703	4663.473145
446.962891	4783.196777
445.080078	4622.737305
443.197266	4662.775391
441.3125	4616.541016
439.427734	4660.540527
437.542969	4667.381836
435.658203	4666.263184
433.771484	4658.516113
431.886719	4622.939453
430	4605.930664
428.111328	4688.286133
426.224609	4642.131348
424.335938	4609.240234
422.447266	4622.697266
420.558594	4587.178711
418.669922	4656.207031
416.779297	4643.185547
414.888672	4549.495605
412.998047	4685.915039
411.107422	4598.869141
409.214844	4649.308594
407.324219	4542.493164
405.431641	4596.884277
403.537109	4566.729004
401.644531	4596.001465
399.75	4604.140137
