#Wave		#Intensity
2109.224609	7105.444336
2107.712891	7214.605957
2106.201172	7244.464355
2104.687500	7203.220215
2103.175781	7140.505859
2101.662109	7176.971191
2100.150391	7196.898926
2098.636719	7243.247559
2097.123047	7238.380859
2095.607422	7119.589355
2094.093750	7160.972168
2092.578125	7149.524902
2091.064453	7143.032227
2089.548828	7156.339355
2088.033203	7138.303223
2086.517578	7120.274414
2085.000000	7090.713867
2083.484375	7071.055176
2081.966797	7023.390625
2080.449219	6936.205566
2078.931641	7084.607422
2077.414063	7032.030273
2075.894531	6995.940918
2074.376953	7032.296875
2072.857422	7066.991699
2071.337891	7032.563477
2069.818359	7044.211914
2068.298828	6968.685547
2066.777344	6922.790039
2065.257813	6937.742676
2063.736328	6951.045410
2062.214844	6967.629395
2060.693359	6931.631348
2059.171875	7010.630859
2057.648438	6950.005371
2056.126953	6866.419434
2054.603516	6887.928223
2053.080078	7007.899414
2051.556641	7001.474121
2050.033203	6945.836914
2048.507813	6816.417480
2046.984375	6805.118164
2045.458984	6882.353027
2043.933594	6985.780273
2042.408203	6877.766602
2040.882813	6753.415039
2039.355469	6992.760254
2037.830078	6856.973633
2036.302734	6847.319824
2034.775391	6870.409668
2033.248047	6919.675781
2031.718750	6916.559570
2030.191406	6803.837402
2028.662109	6830.187500
2027.134766	7033.131836
2025.605469	7003.835449
2024.076172	6938.592285
2022.544922	6865.206055
2021.015625	7027.123047
2019.484375	6909.645020
2017.955078	6819.980469
2016.423828	6940.983887
2014.892578	6877.469727
2013.359375	6786.236816
2011.828125	6956.122070
2010.294922	6807.812500
2008.761719	6804.729492
2007.230469	6731.527832
2005.695313	6809.979492
2004.162109	6927.518066
2002.628906	6777.742676
2001.093750	6875.686035
1999.558594	6924.719238
1998.023438	6815.755371
1996.488281	6832.214355
1994.953125	6807.968262
1993.417969	6728.395020
1991.880859	6909.211914
1990.343750	6829.650879
1988.806641	6911.150391
1987.269531	6790.967773
1985.732422	6677.339355
1984.193359	6721.432617
1982.656250	6801.260742
1981.117188	6720.198730
1979.578125	6882.839844
1978.039063	6912.234375
1976.500000	6766.249512
1974.958984	6722.602051
1973.417969	6831.542480
1971.878906	6823.599609
1970.337891	6791.324707
1968.796875	6932.621582
1967.253906	6853.307129
1965.712891	6915.084473
1964.169922	6821.218262
1962.626953	6803.562988
1961.083984	6798.877441
1959.541016	6925.412598
1957.998047	6676.138184
1956.455078	6767.020996
1954.910156	6797.963379
1953.365234	6710.734863
1951.820313	6733.584961
1950.275391	6690.090820
1948.730469	6746.904297
1947.183594	6766.497070
1945.638672	6739.191895
1944.091797	6745.845215
1942.544922	6674.918457
1940.998047	6584.630859
1939.449219	6688.243652
1937.902344	6740.126465
1936.353516	6821.054199
1934.804688	6711.437988
1933.255859	6711.629883
1931.707031	6561.737793
1930.158203	6712.013184
1928.607422	6731.561523
1927.058594	6633.368652
1925.507813	6565.854004
1923.957031	6724.061035
1922.406250	6774.213379
1920.853516	6680.928223
1919.302734	6598.959473
1917.750000	6637.831055
1916.197266	6633.205078
1914.644531	6625.360352
1913.091797	6620.738770
1911.539063	6730.383789
1909.984375	6679.079590
1908.431641	6635.840332
1906.876953	6557.235352
1905.322266	6539.768066
1903.767578	6544.814941
1902.210938	6535.393555
1900.656250	6723.635742
1899.099609	6865.205078
1897.542969	6650.114258
1895.986328	6549.137695
1894.429688	6679.414063
1892.873047	6482.156250
1891.314453	6713.503418
1889.755859	6641.480957
1888.199219	6516.547852
1886.640625	6566.495605
1885.080078	6568.314941
1883.521484	6658.311523
1881.960938	6469.363281
1880.402344	6584.983887
1878.841797	6538.729004
1877.281250	6519.726563
1875.720703	6702.527832
1874.158203	6573.013672
1872.597656	6627.655273
1871.035156	6575.037598
1869.472656	6485.636719
1867.910156	6524.263184
1866.347656	6625.254395
1864.783203	6615.858887
1863.220703	6547.309082
1861.656250	6560.312500
1860.091797	6584.497559
1858.527344	6416.930664
1856.962891	6693.541016
1855.396484	6553.173340
1853.832031	6722.649902
1852.265625	6411.510742
1850.699219	6539.444824
1849.132813	6499.764160
1847.566406	6437.762695
1845.998047	6452.354492
1844.431641	6516.378906
1842.863281	6516.597168
1841.294922	6542.321289
1839.726563	6582.377930
1838.156250	6488.567383
1836.587891	6570.039551
1835.017578	6624.399414
1833.449219	6514.713867
1831.878906	6541.996582
1830.306641	6521.513672
1828.736328	6594.934082
1827.166016	6590.359375
1825.593750	6571.469238
1824.021484	6514.416504
1822.449219	6519.401367
1820.876953	6500.537109
1819.304688	6495.985352
1817.730469	6483.490234
1816.158203	6498.008789
1814.583984	6549.054199
1813.009766	6541.319336
1811.435547	6441.497559
1809.859375	6584.591797
1808.285156	6460.996582
1806.708984	6486.606445
1805.132813	6474.131836
1803.556641	6475.937012
1801.980469	6493.598145
1800.404297	6444.665039
1798.826172	6484.515625
1797.248047	6489.485352
1795.671875	6462.764648
1794.093750	6499.416992
1792.513672	6507.546875
1790.935547	6580.592285
1789.355469	6479.469238
1787.777344	6560.402832
1786.197266	6522.622070
1784.617188	6446.887695
1783.035156	6507.213379
1781.455078	6448.908691
1779.873047	6551.895996
1778.292969	6424.054199
1776.710938	6594.959473
1775.128906	6557.225098
1773.544922	6467.375488
1771.962891	6522.867188
1770.378906	6608.336914
1768.794922	6540.634766
1767.212891	6583.447266
1765.626953	6582.056641
1764.042969	6538.067383
1762.458984	6552.459473
1760.873047	6581.039063
1759.287109	6680.558105
1757.701172	6556.187988
1756.115234	6528.009766
1754.529297	6564.447266
1752.941406	6563.059570
1751.355469	6747.528809
1749.767578	6679.964355
1748.179688	6576.216797
1746.591797	6647.233398
1745.001953	6724.514160
1743.414063	6631.835449
1741.824219	6688.636719
1740.234375	6808.321777
1738.644531	6743.986328
1737.054688	6818.019043
1735.462891	6899.878906
1733.873047	6807.278809
1732.281250	6790.127930
1730.689453	6780.838379
1729.097656	6798.248535
1727.505859	6859.612793
1725.912109	6876.998535
1724.320313	6749.991699
1722.726563	6825.447754
1721.132813	6874.202637
1719.539063	6907.252930
1717.945313	6916.767578
1716.349609	6999.961914
1714.755859	6824.497559
1713.160156	6971.925293
1711.564453	6934.414551
1709.968750	6937.645508
1708.371094	6986.291016
1706.775391	7044.310547
1705.177734	6895.669434
1703.580078	7041.327148
1701.982422	7006.976074
1700.384766	7133.774414
1698.787109	7027.469238
1697.187500	7201.121582
1695.587891	7354.375977
1693.990234	7265.284180
1692.390625	7285.623047
1690.789063	7327.827637
1689.189453	7326.274414
1687.587891	7373.136719
1685.988281	7404.363770
1684.386719	7299.760742
1682.785156	7504.236328
1681.181641	7583.788574
1679.580078	7672.667480
1677.976563	7730.312012
1676.373047	7816.002441
1674.769531	7798.752930
1673.166016	7917.125977
1671.562500	8041.682129
1669.957031	7948.045898
1668.353516	7977.515625
1666.748047	8115.995117
1665.142578	8198.358398
1663.537109	8230.868164
1661.929688	8362.978516
1660.324219	8266.277344
1658.716797	8457.444336
1657.109375	8659.416992
1655.501953	8722.895508
1653.894531	8890.518555
1652.285156	9022.317383
1650.677734	9189.805664
1649.068359	9262.436523
1647.458984	9383.196289
1645.849609	9519.434570
1644.240234	9477.038086
1642.628906	9558.859375
1641.019531	9646.854492
1639.408203	9841.888672
1637.796875	9805.663086
1636.185547	9834.601563
1634.572266	9730.152344
1632.960938	10042.841797
1631.347656	10105.814453
1629.734375	10057.167969
1628.121094	10247.171875
1626.507813	10382.872070
1624.894531	10633.130859
1623.279297	10666.484375
1621.664063	10603.832031
1620.048828	10787.323242
1618.433594	11026.447266
1616.818359	11068.968750
1615.203125	11355.883789
1613.585938	11259.123047
1611.968750	11375.785156
1610.351563	11543.413086
1608.734375	11629.051758
1607.117188	12028.341797
1605.498047	12204.990234
1603.878906	12298.153320
1602.261719	12300.164063
1600.640625	12550.748047
1599.021484	12805.855469
1597.402344	12692.006836
1595.781250	12842.052734
1594.162109	12992.032227
1592.541016	13206.724609
1590.919922	13284.087891
1589.296875	13483.208008
1587.675781	13501.907227
1586.052734	13702.434570
1584.429688	13895.170898
1582.806641	14291.147461
1581.183594	14285.014648
1579.560547	14431.310547
1577.935547	14846.927734
1576.312500	14805.279297
1574.687500	14862.123047
1573.062500	14802.026367
1571.435547	14457.420898
1569.810547	14601.947266
1568.183594	14678.767578
1566.558594	14583.405273
1564.931641	14523.427734
1563.304688	14461.937500
1561.675781	14581.726563
1560.048828	14449.604492
1558.419922	14425.015625
1556.791016	14521.706055
1555.162109	14699.695313
1553.533203	14497.074219
1551.904297	14472.492188
1550.273438	14225.525391
1548.642578	13964.862305
1547.011719	13828.490234
1545.380859	13712.101563
1543.750000	13341.377930
1542.119141	13179.177734
1540.486328	13148.779297
1538.853516	13024.974609
1537.220703	12945.625000
1535.587891	12636.688477
1533.955078	12554.392578
1532.320313	12580.770508
1530.685547	12755.527344
1529.052734	12833.851563
1527.416016	13188.916992
1525.781250	13260.996094
1524.146484	13537.861328
1522.509766	13689.297852
1520.873047	13707.746094
1519.236328	13830.055664
1517.599609	14277.600586
1515.962891	14431.795898
1514.324219	14381.371094
1512.687500	14265.339844
1511.048828	14143.252930
1509.410156	14015.116211
1507.771484	13511.832031
1506.130859	13147.526367
1504.492188	12955.652344
1502.851563	12634.299805
1501.210938	12473.093750
1499.570313	12324.144531
1497.927734	12303.210938
1496.287109	12203.093750
1494.644531	12022.321289
1493.001953	11928.395508
1491.359375	11636.657227
1489.716797	11291.788086
1488.074219	11269.577148
1486.429688	11019.232422
1484.785156	11171.958008
1483.140625	10912.619141
1481.496094	11007.541016
1479.851563	11059.872070
1478.207031	11207.894531
1476.560547	11364.966797
1474.914063	11307.840820
1473.267578	11331.209961
1471.621094	11395.553711
1469.972656	11449.244141
1468.326172	11240.412109
1466.677734	11219.778320
1465.029297	11385.703125
1463.380859	11133.042969
1461.732422	11271.625000
1460.082031	11085.788086
1458.431641	11140.972656
1456.783203	11055.234375
1455.132813	10854.414063
1453.480469	10836.919922
1451.830078	10545.388672
1450.177734	10511.316406
1448.527344	10313.810547
1446.875000	10119.416016
1445.220703	10165.630859
1443.568359	10048.483398
1441.916016	10050.840820
1440.261719	10116.690430
1438.607422	9983.001953
1436.953125	10145.545898
1435.298828	10161.473633
1433.642578	10104.892578
1431.988281	10184.245117
1430.332031	10262.052734
1428.675781	9982.083008
1427.019531	9762.599609
1425.361328	9552.262695
1423.705078	9456.661133
1422.046875	9367.133789
1420.388672	9141.939453
1418.730469	9329.895508
1417.072266	9139.470703
1415.412109	9179.673828
1413.753906	9191.235352
1412.093750	9330.817383
1410.433594	9413.114258
1408.773438	9650.444336
1407.111328	9935.835938
1405.451172	9936.681641
1403.789063	10292.599609
1402.126953	10694.991211
1400.464844	10731.761719
1398.802734	10932.403320
1397.138672	10875.903320
1395.474609	10744.281250
1393.812500	10626.239258
1392.146484	10551.813477
1390.482422	10363.272461
1388.818359	10356.505859
1387.152344	10117.044922
1385.486328	10140.351563
1383.820313	10034.594727
1382.154297	10093.914063
1380.488281	10033.210938
1378.820313	10047.513672
1377.154297	10139.773438
1375.486328	10167.536133
1373.818359	10084.385742
1372.148438	9962.314453
1370.480469	9910.702148
1368.810547	10064.290039
1367.140625	10168.398438
1365.470703	10109.286133
1363.800781	10110.065430
1362.130859	10107.851563
1360.458984	10069.732422
1358.787109	10036.116211
1357.115234	9926.250977
1355.443359	9945.004883
1353.771484	10135.642578
1352.097656	10296.307617
1350.423828	10391.163086
1348.751953	10642.817383
1347.076172	10880.918945
1345.402344	11151.763672
1343.728516	11495.631836
1342.052734	11870.689453
1340.376953	12555.935547
1338.701172	12754.564453
1337.025391	13076.894531
1335.347656	13451.270508
1333.671875	13463.220703
1331.994141	13563.101563
1330.316406	13193.548828
1328.638672	13576.502930
1326.960938	13344.137695
1325.281250	13317.375000
1323.601563	13289.133789
1321.921875	13123.962891
1320.242188	12808.559570
1318.562500	12801.274414
1316.880859	12575.329102
1315.201172	12127.892578
1313.519531	11753.507813
1311.837891	11510.100586
1310.154297	11329.219727
1308.472656	10946.340820
1306.789063	10829.539063
1305.105469	10509.315430
1303.421875	10299.112305
1301.738281	10307.230469
1300.054688	10088.257813
1298.369141	9985.125000
1296.683594	9864.233398
1294.998047	9669.232422
1293.312500	9496.560547
1291.626953	9494.460938
1289.939453	9379.709961
1288.253906	9364.297852
1286.566406	9369.633789
1284.878906	9186.845703
1283.189453	9318.096680
1281.501953	9274.576172
1279.812500	9282.884766
1278.123047	9258.628906
1276.433594	9203.311523
1274.744141	9085.885742
1273.052734	9196.274414
1271.363281	9024.190430
1269.671875	8880.270508
1267.980469	8687.639648
1266.289063	8546.812500
1264.595703	8491.731445
1262.904297	8445.536133
1261.210938	8287.132813
1259.517578	8458.026367
1257.824219	8177.178711
1256.128906	8330.310547
1254.435547	8213.379883
1252.740234	8418.060547
1251.044922	8273.141602
1249.349609	8271.301758
1247.652344	8406.548828
1245.957031	8403.205078
1244.259766	8402.808594
1242.562500	8370.003906
1240.865234	8480.069336
1239.167969	8223.452148
1237.468750	8293.752930
1235.769531	8231.562500
1234.072266	8100.242188
1232.371094	8241.133789
1230.671875	8202.527344
1228.972656	8058.064453
1227.271484	8110.661133
1225.570313	8051.529785
1223.869141	7870.458008
1222.167969	7767.331055
1220.464844	7439.520996
1218.763672	7528.905273
1217.060547	7450.879395
1215.357422	7284.818359
1213.654297	7340.422852
1211.949219	7423.877930
1210.246094	7458.888672
1208.541016	7485.084473
1206.835938	7439.424805
1205.130859	7502.257813
1203.423828	7547.475586
1201.718750	7591.207520
1200.011719	7740.389648
1198.304688	7732.797852
1196.597656	7748.636230
1194.888672	7667.850098
1193.181641	7721.747070
1191.472656	7630.758789
1189.763672	7677.323730
1188.054688	7799.920898
1186.343750	7752.841309
1184.634766	7971.851563
1182.923828	8117.683594
1181.212891	8035.491699
1179.501953	7707.898438
1177.791016	7653.585449
1176.078125	7444.506348
1174.365234	7365.456055
1172.652344	7273.304199
1170.939453	7420.517090
1169.226563	7316.720703
1167.511719	7264.022949
1165.798828	7231.764160
1164.083984	7237.426758
1162.369141	7202.271973
1160.652344	7355.126953
1158.937500	7236.910645
1157.220703	7305.201172
1155.503906	7245.301758
1153.787109	7354.326172
1152.070313	7316.276367
1150.351563	7231.671387
1148.632813	7227.130371
1146.916016	7276.415039
1145.195313	7194.782715
1143.476563	7229.510254
1141.757813	7326.731445
1140.037109	7261.127930
1138.316406	7400.435059
1136.595703	7276.734375
1134.875000	7176.326660
1133.152344	7080.320313
1131.429688	6705.620605
1129.708984	6590.894043
1127.984375	6590.854492
1126.261719	6437.033691
1124.539063	6377.560059
1122.814453	6422.520020
1121.089844	6392.070801
1119.365234	6316.701660
1117.640625	6250.060547
1115.914063	6326.879883
1114.187500	6200.878418
1112.462891	6290.705566
1110.734375	6270.458496
1109.007813	6124.288574
1107.281250	6076.590820
1105.552734	6027.467285
1103.824219	5921.952148
1102.095703	5797.684082
1100.367188	5842.634766
1098.636719	5627.372559
1096.908203	5672.340820
1095.177734	5597.364746
1093.447266	5546.979004
1091.714844	5563.048828
1089.984375	5511.249023
1088.251953	5501.334473
1086.519531	5468.332520
1084.787109	5467.088867
1083.054688	5517.776855
1081.320313	5481.907715
1079.585938	5598.895996
1077.851563	5656.725586
1076.117188	5717.410645
1074.382813	5880.372559
1072.648438	5896.319824
1070.912109	5894.976074
1069.175781	5745.319824
1067.439453	5723.855469
1065.701172	5834.813477
1063.964844	5836.360352
1062.226563	5801.940430
1060.488281	5712.880859
1058.750000	5586.474609
1057.011719	5497.503418
1055.271484	5353.955078
1053.531250	5410.210938
1051.791016	5311.283203
1050.050781	5320.123535
1048.310547	5336.139160
1046.568359	5403.831055
1044.826172	5567.658691
1043.083984	5504.680176
1041.341797	5470.423340
1039.599609	5525.110840
1037.855469	5549.658691
1036.113281	5509.678223
1034.369141	5485.482910
1032.623047	5401.110352
1030.878906	5412.767578
1029.132813	5424.418457
1027.386719	5438.927734
1025.640625	5400.456055
1023.894531	5397.786621
1022.148438	5279.201172
1020.400391	5393.879883
1018.652344	5444.136719
1016.904297	5461.478516
1015.156250	5543.150391
1013.406250	5500.424316
1011.658203	5520.597656
1009.908203	5552.190918
1008.158203	5549.486816
1006.408203	5561.064453
1004.656250	5586.914063
1002.904297	5609.896484
1001.152344	5617.168945
999.400391	5488.892090
997.648438	5402.041016
995.896484	5454.991211
994.142578	5391.000000
992.388672	5366.951172
990.634766	5397.068848
988.878906	5106.585449
987.125000	5253.557129
985.369141	5188.258789
983.613281	5202.725098
981.857422	5153.126465
980.099609	5087.895020
978.343750	5059.687012
976.585938	5017.266602
974.828125	5063.041504
973.070313	5037.701172
971.310547	5020.901367
969.552734	5190.288574
967.792969	5183.406250
966.033203	5239.031738
964.273438	5538.910645
962.511719	5583.067871
960.750000	5770.581055
958.990234	6053.097168
957.226563	5938.183594
955.464844	5968.019531
953.703125	5901.398926
951.939453	5721.373535
950.175781	5589.629395
948.412109	5456.528320
946.648438	5392.919434
944.882813	5179.177246
943.117188	5125.574707
941.351563	5210.761230
939.585938	5155.759277
937.820313	5025.770996
936.052734	4992.061523
934.285156	5047.490234
932.517578	4984.089355
930.750000	4987.175293
928.982422	4964.812988
927.212891	4798.299805
925.443359	4863.598145
923.673828	4786.184082
921.904297	4875.463379
920.132813	4885.627441
918.361328	4813.907715
916.591797	4903.117188
914.818359	4786.271973
913.046875	4776.694824
911.275391	4774.174316
909.501953	4705.380859
907.728516	4743.759277
905.955078	4838.495605
904.179688	4703.507324
902.406250	4810.886230
900.630859	4764.697266
898.855469	4665.020996
897.080078	4721.653320
895.302734	4779.666016
893.525391	4682.869141
891.750000	4790.100586
889.970703	4698.971191
888.193359	4666.940918
886.416016	4702.403809
884.636719	4619.790039
882.857422	4562.506836
881.078125	4548.798828
879.296875	4550.546875
877.517578	4548.080566
875.736328	4583.518555
873.955078	4509.466309
872.173828	4577.169434
870.390625	4497.540527
868.609375	4503.502930
866.826172	4569.755859
865.042969	4439.716309
863.259766	4339.169434
861.474609	4404.012207
859.689453	4475.828125
857.904297	4421.560547
856.119141	4393.921875
854.333984	4490.887207
852.546875	4464.644043
850.761719	4437.013672
848.974609	4498.926270
847.185547	4453.118164
845.398438	4422.711914
843.609375	4516.735840
841.822266	4461.170898
840.031250	4655.745117
838.242188	4685.387207
836.453125	4733.171387
834.662109	4709.720703
832.871094	4697.448730
831.080078	4637.730469
829.289063	4600.364258
827.496094	4666.244629
825.703125	4560.549805
823.910156	4634.773926
822.117188	4538.893555
820.324219	4451.419922
818.529297	4494.961914
816.734375	4456.294434
814.939453	4375.864258
813.144531	4443.062500
811.347656	4450.370605
809.550781	4539.786621
807.755859	4656.987793
805.957031	4664.239258
804.160156	4789.699707
802.361328	5027.724121
800.564453	5189.181152
798.765625	5139.319336
796.964844	4888.012695
795.166016	4692.388184
793.365234	4544.073242
791.564453	4533.284668
789.763672	4522.500488
787.962891	4504.782227
786.160156	4489.846191
784.359375	4558.145996
782.556641	4358.757324
780.751953	4364.662598
778.949219	4510.567383
777.144531	4406.952148
775.339844	4401.756836
773.535156	4471.363281
771.730469	4470.308594
769.925781	4474.792480
768.119141	4446.052734
766.312500	4364.738770
764.505859	4342.955566
762.697266	4398.643066
760.890625	4400.370117
759.082031	4574.917480
757.273438	4669.211914
755.464844	4672.254883
753.654297	4842.468262
751.845703	5016.744629
750.035156	5161.938477
748.224609	5282.212402
746.412109	5603.950195
744.601563	5822.039063
742.789063	6240.070313
740.976563	6815.144043
739.164063	7856.040039
737.349609	9163.901367
735.537109	10639.298828
733.722656	12091.950195
731.908203	12816.500977
730.091797	12759.750977
728.277344	11277.808594
726.460938	9631.364258
724.644531	8104.065918
722.828125	6895.356445
721.009766	6054.535156
719.193359	5623.979004
717.375000	5247.253418
715.556641	4836.337402
713.736328	4601.541016
711.917969	4502.890137
710.097656	4401.538086
708.277344	4484.273926
706.457031	4382.973633
704.636719	4306.431152
702.814453	4372.660156
700.992188	4301.644531
699.169922	4299.251953
697.347656	4342.119629
695.523438	4387.708496
693.699219	4383.925781
691.875000	4408.924805
690.050781	4496.939941
688.226563	4493.132813
686.400391	4535.890625
684.574219	4440.338379
682.748047	4466.661133
680.921875	4316.427734
679.095703	4293.510742
677.267578	4319.848633
675.439453	4303.778809
673.611328	4271.309082
671.781250	4268.926758
669.953125	4262.445801
668.123047	4258.699707
666.292969	4306.861328
664.460938	4268.965332
662.630859	4360.791016
660.798828	4403.433105
658.966797	4523.840332
657.134766	4532.313965
655.302734	4569.428223
653.468750	4541.066895
651.634766	4610.880859
649.800781	4623.413574
647.966797	4656.380859
646.130859	4613.038574
644.294922	4625.560547
642.458984	4722.504395
640.623047	4604.297852
638.787109	4535.146973
636.949219	4604.826660
635.111328	4560.195313
633.273438	4522.385742
631.435547	4579.779297
629.595703	4569.171387
627.757813	4595.265625
625.917969	4651.240723
624.076172	4612.094238
622.236328	4735.946289
620.394531	4745.680176
618.552734	4606.081055
616.710938	4621.269043
614.869141	4575.389648
613.025391	4555.306641
611.183594	4468.777344
609.339844	4363.306641
607.494141	4233.485352
605.650391	4018.344238
603.804688	4037.709229
601.958984	3933.795166
600.113281	3954.524902
598.267578	3891.298584
596.419922	3879.540527
594.572266	3896.207520
592.724609	3866.864258
590.876953	3882.173096
589.027344	3902.883545
587.179688	3945.216309
585.330078	3983.473633
583.480469	3994.684570
581.628906	3916.719971
579.779297	3979.268799
577.927734	3978.318115
576.076172	3980.067627
574.222656	4015.560303
572.371094	3940.381348
570.517578	3977.215088
568.664063	4088.214844
566.810547	4023.859131
564.955078	4033.682617
563.101563	4114.936035
561.246094	4148.987793
559.390625	4183.022461
557.533203	4152.391113
555.677734	3999.238770
553.820313	4064.247314
551.962891	4142.683594
550.105469	3992.333496
548.246094	3941.604004
546.386719	3894.933350
544.527344	3873.832275
542.667969	3937.431641
540.808594	3892.138428
538.947266	3879.114502
537.085938	3847.289795
535.224609	3859.799072
533.363281	3861.560791
531.500000	3759.959473
529.638672	3784.558350
527.775391	3793.044678
525.910156	3786.771240
524.046875	4008.483643
522.181641	4470.085449
520.316406	4892.593262
518.451172	4777.512207
516.585938	4184.179199
514.718750	3893.850830
512.851563	3796.499512
510.984375	3659.029541
509.117188	3607.289795
507.250000	3637.204346
505.380859	3581.480713
503.511719	3628.774658
501.642578	3601.161133
499.771484	3584.255615
497.902344	3586.070313
496.031250	3551.804688
494.160156	3520.227051
492.287109	3531.404297
490.416016	3483.822510
488.542969	3404.223633
486.669922	3471.476318
484.796875	3506.671875
482.921875	3477.817139
481.046875	3475.650146
479.171875	3461.483643
477.296875	3600.626709
475.421875	3562.447021
473.544922	3435.012207
471.667969	3420.867920
469.791016	3499.955811
467.914063	3541.724365
466.035156	3576.816895
464.156250	3528.049561
462.277344	3515.229492
460.398438	3506.405762
458.519531	3522.854004
456.638672	3487.441162
454.757813	3513.190186
452.876953	3511.019287
450.994141	3536.750000
449.113281	3517.306152
447.230469	3580.205811
445.347656	3473.135498
443.462891	3498.849854
441.580078	3529.859619
439.695313	3361.849854
437.810547	3552.042480
435.925781	3490.192383
434.039063	3507.916260
432.152344	3565.394287
430.267578	3548.638428
428.378906	3568.984619
426.492188	3603.889893
424.603516	3622.888428
422.714844	3570.390381
420.826172	3592.034668
418.937500	3597.789795
417.046875	3663.071777
415.158203	3672.774414
413.265625	3745.940186
411.375000	3762.227783
409.484375	3695.245117
407.591797	3615.081543
405.699219	3669.696533
403.806641	3594.859619
401.912109	3539.863770
400.019531	3561.456055
