#Wave		#Intensity
1585.210938	20588.095703
1584.209961	20590.591797
1583.208984	20506.417969
1582.208008	20569.578125
1581.206055	20575.300781
1580.204102	20588.507813
1579.202148	20342.220703
1578.200195	20562.515625
1577.198242	20653.029297
1576.195313	20386.933594
1575.192383	20597.107422
1574.189453	20520.560547
1573.186523	20366.791016
1572.182617	20128.376953
1571.178711	20119.226563
1570.174805	20179.810547
1569.170898	19956.519531
1568.166992	20370.603516
1567.162109	20209.585938
1566.158203	20270.097656
1565.153320	20298.242188
1564.147461	20251.753906
1563.142578	20058.564453
1562.136719	20514.373047
1561.130859	20664.244141
1560.125000	21002.929688
1559.119141	20943.917969
1558.113281	21195.457031
1557.106445	21605.847656
1556.099609	22130.296875
1555.092773	22110.818359
1554.084961	22366.869141
1553.078125	22769.228516
1552.070313	22789.326172
1551.062500	22801.972656
1550.054688	22685.646484
1549.045898	22745.417969
1548.038086	22569.652344
1547.029297	22274.986328
1546.020508	22317.457031
1545.011719	21770.251953
1544.001953	21505.656250
1542.992188	21677.037109
1541.982422	21239.246094
1540.972656	21242.275391
1539.962891	20854.253906
1538.952148	20654.453125
1537.942383	20571.009766
1536.931641	20185.839844
1535.919922	20391.859375
1534.909180	20268.960938
1533.897461	20163.416016
1532.886719	20151.828125
1531.874023	19972.222656
1530.862305	19935.972656
1529.850586	20001.000000
1528.837891	19888.207031
1527.825195	19874.214844
1526.812500	19687.441406
1525.799805	19621.669922
1524.786133	19706.429688
1523.772461	19569.142578
1522.758789	19634.146484
1521.745117	19494.462891
1520.731445	19704.904297
1519.716797	19814.203125
1518.702148	19704.138672
1517.687500	19241.802734
1516.672852	19624.544922
1515.657227	19679.585938
1514.642578	19719.830078
1513.626953	19730.515625
1512.610352	19819.955078
1511.594727	19892.130859
1510.579102	19902.771484
1509.562500	19635.466797
1508.545898	19442.044922
1507.529297	19580.619141
1506.511719	20028.859375
1505.494141	19710.134766
1504.477539	20089.361328
1503.458984	19940.261719
1502.441406	19894.376953
1501.423828	20081.791016
1500.405273	20168.468750
1499.386719	20311.564453
1498.368164	20241.095703
1497.348633	20565.679688
1496.330078	20370.080078
1495.310547	20613.566406
1494.291016	20712.279297
1493.271484	20722.697266
1492.250977	20549.283203
1491.231445	20966.511719
1490.210938	20462.367188
1489.190430	20744.716797
1488.168945	20495.517578
1487.148438	20613.693359
1486.126953	20722.027344
1485.105469	20607.597656
1484.083984	20803.974609
1483.061523	20525.660156
1482.040039	20778.228516
1481.017578	20881.519531
1479.995117	21241.484375
1478.971680	21149.082031
1477.949219	21364.648438
1476.925781	21633.878906
1475.902344	21727.109375
1474.878906	22277.025391
1473.855469	22526.361328
1472.831055	22507.041016
1471.806641	22814.804688
1470.782227	23071.191406
1469.757813	23307.951172
1468.733398	23837.333984
1467.708008	24561.603516
1466.682617	25317.269531
1465.657227	25923.912109
1464.631836	26776.472656
1463.605469	27813.876953
1462.579102	28448.855469
1461.552734	29322.279297
1460.526367	30058.960938
1459.500000	29892.027344
1458.472656	30192.542969
1457.445313	30015.910156
1456.417969	29846.650391
1455.390625	29100.890625
1454.362305	28165.720703
1453.334961	27157.984375
1452.306641	26814.400391
1451.277344	25593.453125
1450.249023	25017.027344
1449.219727	24309.634766
1448.191406	23845.458984
1447.162109	23211.462891
1446.131836	23080.373047
1445.102539	22842.517578
1444.072266	22468.833984
1443.041992	22097.730469
1442.011719	22204.746094
1440.981445	22018.203125
1439.950195	21865.689453
1438.918945	21710.814453
1437.887695	21628.726563
1436.856445	21583.029297
1435.825195	21173.869141
1434.792969	21297.871094
1433.760742	21097.246094
1432.728516	20751.402344
1431.696289	20826.986328
1430.663086	20585.429688
1429.629883	20552.105469
1428.596680	20424.427734
1427.563477	20633.066406
1426.530273	20251.464844
1425.496094	20198.888672
1424.461914	20180.179688
1423.427734	19960.855469
1422.393555	19997.785156
1421.358398	20104.765625
1420.323242	19844.523438
1419.288086	19941.830078
1418.252930	19845.921875
1417.217773	19619.691406
1416.181641	20281.769531
1415.145508	19857.662109
1414.109375	20053.775391
1413.073242	20259.455078
1412.036133	20520.513672
1411.000000	20841.742188
1409.962891	20748.208984
1408.924805	21307.853516
1407.887695	21850.398438
1406.849609	22255.394531
1405.812500	23084.136719
1404.773438	23674.130859
1403.735352	24540.750000
1402.697266	24807.638672
1401.658203	25765.109375
1400.619141	26228.927734
1399.580078	26439.964844
1398.540039	26446.476563
1397.500977	26303.900391
1396.460938	26394.578125
1395.420898	26143.908203
1394.380859	26015.896484
1393.339844	25505.925781
1392.298828	25233.972656
1391.257813	25038.980469
1390.216797	25273.865234
1389.175781	24812.480469
1388.133789	24898.503906
1387.091797	25330.031250
1386.049805	25775.773438
1385.007813	26178.150391
1383.964844	27287.792969
1382.922852	27893.478516
1381.879883	28944.767578
1380.835938	29585.798828
1379.792969	30792.037109
1378.749023	31643.222656
1377.706055	32070.121094
1376.661133	32362.742188
1375.617188	33009.562500
1374.573242	32681.923828
1373.528320	32852.179688
1372.483398	32649.123047
1371.438477	31852.912109
1370.392578	31750.587891
1369.347656	30828.166016
1368.301758	29841.582031
1367.255859	29541.361328
1366.208984	28799.191406
1365.163086	28117.058594
1364.116211	27552.248047
1363.069336	26794.238281
1362.022461	26289.626953
1360.974609	26276.962891
1359.927734	25961.208984
1358.879883	25571.615234
1357.832031	25365.871094
1356.783203	25351.019531
1355.735352	25481.632813
1354.686523	25919.734375
1353.637695	26066.855469
1352.588867	26194.845703
1351.539063	26749.265625
1350.490234	27608.357422
1349.440430	28633.796875
1348.390625	29211.162109
1347.339844	30352.482422
1346.290039	31452.859375
1345.239258	32412.378906
1344.188477	33890.132813
1343.137695	34396.800781
1342.085938	35728.453125
1341.034180	36969.195313
1339.982422	37543.828125
1338.930664	38305.964844
1337.878906	38689.984375
1336.826172	38879.039063
1335.773438	38954.003906
1334.720703	39071.679688
1333.667969	38887.792969
1332.614258	38279.105469
1331.561523	37760.851563
1330.507813	37126.550781
1329.453125	36480.656250
1328.399414	35498.257813
1327.344727	34461.738281
1326.290039	34006.449219
1325.235352	33119.988281
1324.180664	32729.150391
1323.125000	32023.378906
1322.070313	31422.123047
1321.014648	31349.207031
1319.958008	30987.470703
1318.902344	30273.181641
1317.845703	30101.148438
1316.789063	29340.019531
1315.732422	29012.121094
1314.675781	28272.822266
1313.618164	27533.833984
1312.560547	27000.833984
1311.502930	26574.421875
1310.445313	25918.960938
1309.386719	25062.951172
1308.329102	24710.435547
1307.270508	24492.681641
1306.210938	23814.591797
1305.152344	23594.755859
1304.092773	23197.996094
1303.033203	22596.113281
1301.973633	22598.425781
1300.914063	22721.029297
1299.853516	22268.187500
1298.792969	22032.439453
1297.732422	21942.933594
1296.671875	21431.619141
1295.611328	21662.714844
1294.549805	21469.689453
1293.488281	21559.365234
1292.426758	21324.056641
1291.364258	21248.927734
1290.302734	21486.873047
1289.240234	21249.369141
1288.177734	21313.109375
1287.114258	21689.664063
1286.051758	21318.216797
1284.988281	21694.607422
1283.924805	21786.402344
1282.861328	22040.322266
1281.796875	22287.082031
1280.732422	22742.818359
1279.667969	23111.457031
1278.603516	24024.726563
1277.539063	24310.763672
1276.473633	24876.000000
1275.408203	25408.138672
1274.342773	25827.433594
1273.277344	26150.371094
1272.210938	26494.277344
1271.145508	26366.742188
1270.079102	26330.683594
1269.011719	25830.574219
1267.945313	25274.437500
1266.877930	24997.322266
1265.810547	24422.855469
1264.743164	23722.171875
1263.674805	23033.492188
1262.607422	22300.626953
1261.539063	22101.656250
1260.470703	21645.390625
1259.401367	20845.441406
1258.333008	20569.718750
1257.263672	20598.091797
1256.194336	19883.029297
1255.125000	20147.601563
1254.054688	19795.140625
1252.985352	19632.068359
1251.915039	19375.632813
1250.843750	19567.685547
1249.773438	19689.611328
1248.702148	19402.974609
1247.630859	19366.179688
1246.559570	19089.064453
1245.488281	19297.296875
1244.416016	19349.171875
1243.343750	19256.449219
1242.271484	19187.078125
1241.199219	19129.388672
1240.125977	18880.630859
1239.053711	18813.708984
1237.980469	19056.621094
1236.906250	19085.169922
1235.833008	19085.765625
1234.758789	19302.853516
1233.684570	19366.238281
1232.610352	19175.962891
1231.536133	19302.158203
1230.460938	19274.789063
1229.385742	19347.421875
1228.310547	19271.228516
1227.235352	19367.072266
1226.159180	19328.085938
1225.083008	19314.671875
1224.006836	19354.689453
1222.930664	19545.648438
1221.853516	19139.783203
1220.777344	19279.630859
1219.700195	19261.593750
1218.622070	19561.462891
1217.544922	19471.451172
1216.466797	19321.167969
1215.388672	19379.656250
1214.310547	19292.052734
1213.232422	19554.501953
1212.153320	19541.054688
1211.074219	19562.367188
1209.995117	19553.556641
1208.916016	19831.929688
1207.835938	20049.980469
1206.755859	19957.724609
1205.675781	19941.884766
1204.595703	19826.546875
1203.514648	20134.632813
1202.434570	19873.580078
1201.353516	19869.328125
1200.271484	19869.701172
1199.190430	20133.587891
1198.108398	19946.705078
1197.026367	19690.583984
1195.944336	19818.042969
1194.862305	19515.863281
1193.779297	19160.705078
1192.696289	19320.507813
1191.613281	18833.978516
1190.530273	18689.179688
1189.446289	18509.833984
1188.362305	18298.273438
1187.278320	18114.472656
1186.194336	18069.087891
1185.109375	17827.785156
1184.024414	17681.072266
1182.939453	17562.072266
1181.854492	17479.980469
1180.768555	17566.050781
1179.683594	17274.449219
1178.597656	17332.898438
1177.510742	17209.490234
1176.424805	17263.322266
1175.337891	17043.351563
1174.250977	17064.992188
1173.164063	17224.601563
1172.077148	17147.326172
1170.989258	17099.964844
1169.901367	17018.148438
1168.813477	16993.808594
1167.724609	16985.560547
1166.636719	17076.070313
1165.547852	17122.914063
1164.458984	17029.695313
1163.369141	16936.515625
1162.280273	16994.828125
1161.190430	17128.824219
1160.100586	16932.458984
1159.010742	17330.132813
1157.919922	17060.437500
1156.829102	17049.884766
1155.738281	17089.753906
1154.647461	17214.382813
1153.555664	17487.857422
1152.464844	17516.150391
1151.373047	17537.560547
1150.280273	17574.984375
1149.188477	17827.539063
1148.095703	17798.521484
1147.002930	17877.041016
1145.910156	18099.628906
1144.817383	18182.621094
1143.723633	17995.787109
1142.629883	18106.193359
1141.536133	17834.894531
1140.441406	17974.988281
1139.347656	18028.212891
1138.252930	18058.574219
1137.158203	17755.548828
1136.062500	17827.044922
1134.967773	17551.585938
1133.872070	17312.753906
1132.776367	17386.576172
1131.679688	17391.937500
1130.583984	17445.185547
1129.487305	17416.330078
1128.390625	17542.486328
1127.292969	17251.542969
1126.196289	17534.890625
1125.098633	17291.908203
1124.000977	17474.912109
1122.903320	17197.890625
1121.804688	17344.410156
1120.706055	17345.203125
1119.607422	17366.472656
1118.508789	17217.107422
1117.409180	17072.355469
1116.310547	17375.642578
1115.210938	17076.316406
1114.110352	16963.505859
1113.010742	17216.619141
1111.910156	16919.791016
1110.809570	17131.914063
1109.708984	17275.810547
1108.607422	17337.904297
1107.506836	17027.679688
1106.405273	17046.675781
1105.303711	16795.642578
1104.201172	16889.541016
1103.098633	16913.087891
1101.996094	16625.960938
1100.893555	16869.458984
1099.791016	16444.201172
1098.687500	16325.051758
1097.583984	16378.140625
1096.480469	16279.440430
1095.376953	16414.039063
1094.272461	16530.464844
1093.167969	16264.283203
1092.063477	16249.424805
1090.958008	16510.615234
1089.853516	16244.607422
1088.748047	16177.741211
1087.642578	16244.311523
1086.536133	15951.402344
1085.430664	16167.163086
1084.324219	16023.536133
1083.217773	16178.185547
1082.110352	16265.004883
1081.003906	16297.587891
1079.896484	16411.433594
1078.789063	15929.316406
1077.680664	16171.823242
1076.573242	16096.092773
1075.464844	16178.295898
1074.356445	16285.269531
1073.247070	16196.030273
1072.138672	16280.408203
1071.029297	16324.179688
1069.919922	16293.571289
1068.809570	16141.324219
1067.700195	16137.793945
1066.589844	16206.323242
1065.479492	16452.673828
1064.368164	16334.282227
1063.257813	16125.926758
1062.146484	16196.641602
1061.035156	16231.334961
1059.922852	16400.943359
1058.811523	16284.932617
1057.699219	15939.688477
1056.586914	16187.903320
1055.473633	16258.503906
1054.361328	16373.999023
1053.248047	16305.278320
1052.134766	16099.616211
1051.021484	16392.416016
1049.907227	16139.688477
1048.792969	15907.266602
1047.678711	16125.876953
1046.564453	16245.701172
1045.449219	16457.412109
1044.333984	16305.828125
1043.218750	16356.042969
1042.103516	16415.199219
1040.987305	16321.973633
1039.871094	16562.546875
1038.754883	16339.436523
1037.638672	16624.677734
1036.521484	16488.951172
1035.404297	16881.457031
1034.287109	16689.791016
1033.169922	16742.046875
1032.051758	16660.083984
1030.933594	16960.523438
1029.815430	16965.734375
1028.697266	16928.472656
1027.578125	17011.894531
1026.458984	17191.345703
1025.339844	17058.009766
1024.220703	17000.658203
1023.100586	17135.335938
1021.980469	17397.183594
1020.860352	17678.998047
1019.740234	17623.785156
1018.619141	17633.283203
1017.498047	17515.656250
1016.376953	17493.957031
1015.255859	17599.326172
1014.133789	17301.257813
1013.011719	17324.177734
1011.889648	17496.343750
1010.767578	17456.845703
1009.644531	17595.500000
1008.521484	17453.589844
1007.398438	17340.673828
1006.274414	17256.734375
1005.151367	17241.796875
1004.027344	17066.718750
1002.902344	16987.337891
1001.778320	17008.039063
1000.653320	16850.906250
999.528320	17009.406250
998.403320	16845.675781
997.278320	16861.939453
996.152344	16578.386719
995.026367	16508.107422
993.900391	16793.031250
992.773438	16660.591797
991.646484	16486.050781
990.519531	16710.890625
989.392578	16698.318359
988.265625	16716.791016
987.137695	16846.099609
986.009766	16899.992188
984.881836	16958.291016
983.752930	16945.669922
982.624023	17165.619141
981.495117	17192.812500
980.366211	17036.238281
979.236328	17043.525391
978.106445	17289.806641
976.976563	16664.267578
975.846680	17151.625000
974.715820	16606.003906
973.585938	16865.423828
972.454102	16587.576172
971.323242	16530.851563
970.191406	16586.833984
969.060547	16477.115234
967.927734	16451.367188
966.795898	16774.500000
965.663086	16912.052734
964.530273	16948.019531
963.397461	17028.099609
962.264648	17141.232422
961.130859	17309.455078
959.997070	17506.265625
958.863281	17614.804688
957.729492	17372.837891
956.594727	17514.408203
955.459961	17424.585938
954.325195	17222.466797
953.189453	17097.509766
952.053711	16715.015625
950.917969	16563.810547
949.782227	16392.867188
948.646484	16622.431641
947.509766	16623.125000
946.373047	16346.715820
945.235352	16307.889648
944.098633	16585.625000
942.960938	16177.540039
941.823242	16215.676758
940.685547	16201.073242
939.546875	16348.998047
938.408203	16591.273438
937.269531	16670.988281
936.129883	16715.550781
934.991211	16696.455078
933.851563	16793.640625
932.711914	16656.093750
931.571289	17101.900391
930.431641	17271.273438
929.291016	17100.830078
928.149414	17467.345703
927.008789	17196.152344
925.867188	16962.314453
924.725586	17138.089844
923.583984	17118.927734
922.441406	16845.859375
921.299805	16774.246094
920.157227	16396.353516
919.013672	16372.995117
917.871094	16218.427734
916.727539	15952.418945
915.583984	15902.938477
914.439453	15785.729492
913.295898	15476.291992
912.151367	15592.969727
911.006836	15545.793945
909.861328	15481.167969
908.716797	15503.891602
907.571289	15829.977539
906.424805	15342.009766
905.279297	15436.737305
904.132813	15492.161133
902.986328	15495.224609
901.839844	15339.138672
900.692383	15403.261719
899.545898	15510.936523
898.398438	15505.273438
897.250000	15347.141602
896.102539	15489.595703
894.954102	15464.341797
893.805664	15578.405273
892.656250	15453.037109
891.507813	15569.224609
890.358398	15580.949219
889.208984	15238.189453
888.058594	15234.761719
886.908203	15624.778320
885.758789	15338.740234
884.607422	15104.975586
883.457031	15208.015625
882.305664	15163.327148
881.154297	15036.149414
880.002930	15063.153320
878.850586	15122.699219
877.698242	15238.631836
876.545898	15092.021484
875.393555	15114.645508
874.240234	14987.642578
873.086914	14947.409180
871.933594	14688.289063
870.780273	14858.326172
869.625977	15006.622070
868.471680	14823.466797
867.317383	14631.730469
866.162109	14953.166992
865.007813	14718.196289
863.852539	14816.579102
862.696289	14616.358398
861.541016	14974.274414
860.384766	14832.493164
859.228516	14742.663086
858.072266	14953.321289
856.915039	14774.899414
855.757813	14577.112305
854.600586	14623.498047
853.442383	14691.457031
852.285156	14703.248047
851.126953	14788.424805
849.968750	14670.701172
848.809570	14742.898438
847.650391	14730.933594
846.491211	14667.214844
845.332031	14627.241211
844.171875	14912.787109
843.012695	14698.204102
841.851563	14699.185547
840.691406	14913.429688
839.530273	14604.226563
838.369141	14508.330078
837.208008	14767.674805
836.046875	14772.936523
834.884766	14700.732422
833.722656	14688.794922
832.560547	14644.600586
831.397461	14785.348633
830.234375	14438.028320
829.071289	14638.937500
827.908203	14839.754883
826.744141	14806.311523
825.580078	14607.497070
824.416016	14707.254883
823.251953	14660.979492
822.086914	14962.437500
820.921875	14598.529297
819.756836	14781.865234
818.590820	14690.566406
817.425781	14453.485352
816.259766	14664.596680
815.092773	14539.086914
813.926758	14563.641602
812.759766	14654.600586
811.592773	14552.737305
810.424805	14435.928711
809.257813	14477.607422
808.089844	14455.049805
806.920898	14432.501953
805.752930	14536.197266
804.583984	14573.532227
803.415039	14638.650391
802.246094	14477.099609
801.076172	14636.262695
799.906250	14581.639648
798.736328	14514.220703
797.566406	14504.506836
796.395508	14548.188477
795.224609	14892.909180
794.053711	14889.516602
792.881836	14700.448242
791.710938	15081.168945
790.538086	15207.859375
789.366211	15456.057617
788.194336	15586.866211
787.021484	15566.258789
785.848633	15620.253906
784.674805	15348.209961
783.500977	15046.463867
782.327148	15089.887695
781.153320	15001.270508
779.979492	14727.481445
778.804688	14866.721680
777.629883	14790.980469
776.454102	14825.897461
775.279297	14699.150391
774.103516	14678.782227
772.927734	14666.926758
771.750977	14886.750000
770.575195	14585.852539
769.398438	14818.338867
768.220703	14725.745117
767.043945	14760.603516
765.866211	14990.763672
764.688477	14955.499023
763.510742	14911.760742
762.332031	15050.497070
761.153320	15216.743164
759.974609	15136.920898
758.794922	15402.714844
757.616211	15515.771484
756.436523	15711.421875
755.255859	15726.894531
754.076172	16140.578125
752.895508	16518.070313
751.714844	16795.878906
750.533203	17295.816406
749.352539	17947.892578
748.170898	18821.824219
746.988281	19999.955078
745.806641	21498.992188
744.624023	23821.921875
743.441406	27054.841797
742.258789	31374.652344
741.075195	36987.660156
739.891602	43766.230469
738.708008	50573.375000
737.523438	56636.289063
736.339844	61662.066406
735.155273	64357.726563
733.969727	64435.808594
732.785156	61537.386719
731.599609	56440.621094
730.414063	50736.832031
729.227539	44384.277344
728.041992	38386.593750
726.855469	32775.144531
725.667969	28194.267578
724.481445	25070.794922
723.293945	22544.638672
722.106445	20446.978516
720.918945	19101.632813
719.730469	18057.796875
718.541992	17369.958984
717.353516	16697.158203
716.164063	16018.356445
714.975586	15659.401367
713.786133	15481.359375
712.595703	15229.854492
711.406250	14907.038086
710.215820	14922.513672
709.025391	14652.409180
707.833984	14709.920898
706.642578	14565.916992
705.451172	14594.042969
704.259766	14320.060547
703.068359	14299.988281
701.875977	14397.350586
700.683594	14213.746094
699.490234	14376.054688
698.297852	14496.378906
697.104492	14549.607422
695.910156	14659.362305
694.716797	14695.774414
693.522461	14861.966797
692.328125	15025.989258
691.132813	15169.009766
689.938477	15473.052734
688.743164	15615.902344
687.547852	15992.889648
686.351563	15922.305664
685.155273	15774.416992
683.958984	15597.339844
682.762695	15403.629883
681.565430	15049.176758
680.368164	14893.267578
679.170898	14718.639648
677.973633	14587.923828
676.775391	14699.334961
675.577148	14783.571289
674.378906	14563.236328
673.179688	14543.196289
671.980469	14358.458984
670.781250	14613.611328
669.581055	14495.625977
668.381836	14333.942383
667.181641	14426.451172
665.980469	14587.637695
664.780273	14694.617188
663.579102	14803.626953
662.377930	15135.255859
661.175781	14886.258789
659.973633	15049.227539
658.771484	15503.261719
657.569336	15817.785156
656.367188	15853.626953
655.164063	16172.078125
653.960938	16644.126953
652.756836	16671.441406
651.552734	16850.341797
650.348633	17311.523438
649.144531	17591.900391
647.939453	17652.169922
646.735352	17789.177734
645.529297	17681.353516
644.324219	17830.730469
643.118164	17932.349609
641.912109	18011.121094
640.706055	18093.998047
639.499023	17967.574219
638.292969	17979.992188
637.084961	18098.021484
635.877930	17967.539063
634.669922	17953.035156
633.461914	17930.259766
632.253906	17924.044922
631.044922	17801.992188
629.836914	17630.359375
628.626953	17564.253906
627.417969	17380.351563
626.208008	17177.933594
624.998047	16762.792969
623.788086	16467.654297
622.577148	16379.170898
621.366211	15945.916992
620.155273	15593.368164
618.944336	15352.425781
617.732422	15099.212891
616.520508	15277.247070
615.308594	14883.927734
614.095703	14855.740234
612.882813	14590.504883
611.669922	14488.204102
610.457031	14287.047852
609.243164	14088.043945
608.029297	14093.019531
606.815430	14075.343750
605.600586	14109.137695
604.385742	14002.967773
603.170898	13979.148438
601.955078	13864.827148
600.740234	13871.899414
599.524414	14039.345703
598.307617	14027.871094
597.091797	13759.500977
595.875000	13883.706055
594.658203	13907.194336
593.440430	13977.907227
592.222656	13853.524414
591.004883	13983.747070
589.787109	14126.221680
588.568359	14051.132813
587.349609	13957.615234
586.130859	14167.674805
584.912109	14158.239258
583.692383	14337.403320
582.472656	14250.050781
581.251953	14414.766602
580.032227	14710.509766
578.811523	14539.159180
577.589844	14894.114258
576.369141	14810.824219
575.147461	15104.151367
573.925781	15024.941406
572.703125	15086.918945
571.481445	14970.933594
570.258789	15173.979492
569.035156	15421.904297
567.812500	15553.216797
566.588867	15678.337891
565.365234	15803.400391
564.140625	15664.938477
562.916992	15602.089844
561.692383	15529.062500
560.466797	15505.049805
559.242188	15250.474609
558.016602	15401.976563
556.791016	15300.505859
555.564453	15203.159180
554.337891	14995.773438
553.111328	15263.362305
551.884766	14897.122070
550.657227	14922.185547
549.429688	14853.547852
548.202148	14569.103516
546.974609	14679.724609
545.746094	14749.586914
544.517578	14790.928711
543.288086	14840.388672
542.058594	14765.759766
540.829102	14961.603516
539.599609	14872.748047
538.370117	15027.826172
537.139648	14622.008789
535.909180	15012.723633
534.677734	14631.469727
533.446289	14666.653320
532.214844	14659.188477
530.983398	14503.564453
529.750977	14477.876953
528.519531	14387.283203
527.286133	14400.168945
526.053711	14406.963867
524.820313	14257.657227
523.586914	14353.659180
522.353516	14388.826172
521.119141	14257.857422
519.884766	14232.268555
518.650391	14350.457031
517.415039	14179.097656
516.179688	14285.099609
514.944336	14016.705078
513.708984	14015.473633
