#Wave	#Intensity
2109.007813	3289.645752
2107.496094	3311.146729
2105.984375	3264.130859
2104.470703	3314.674316
2102.958984	3361.890625
2101.445313	3286.802002
2099.933594	3251.397217
2098.419922	3265.560791
2096.90625	3317.701172
2095.390625	3298.823242
2093.876953	3212.274414
2092.361328	3236.33667
2090.845703	3314.838379
2089.332031	3284.429932
2087.814453	3288.669678
2086.298828	3362.162598
2084.783203	3264.172119
2083.265625	3263.468994
2081.748047	3244.639648
2080.230469	3275.243408
2078.712891	3269.596924
2077.195313	3277.127197
2075.677734	3264.896973
2074.158203	3221.39624
2072.638672	3248.680664
2071.119141	3279.244385
2069.599609	3214.383301
2068.080078	3271.256104
2066.560547	3296.862305
2065.039063	3195.871826
2063.517578	3270.791748
2061.996094	3316.100586
2060.474609	3254.601074
2058.953125	3268.685547
2057.429688	3323.818848
2055.908203	3218.027344
2054.384766	3327.317383
2052.861328	3279.010498
2051.337891	3301.278564
2049.814453	3354.705566
2048.289063	3244.100342
2046.765625	3208.970703
2045.240234	3298.449463
2043.714844	3160.063721
2042.189453	3195.438232
2040.664063	3181.647217
2039.136719	3179.328125
2037.609375	3211.400391
2036.083984	3259.831787
2034.556641	3270.592773
2033.029297	3214.249512
2031.5	3211.925781
2029.972656	3273.402588
2028.443359	3192.561523
2026.914063	3157.540283
2025.386719	3223.893799
2023.855469	3203.591064
2022.326172	3279.711182
2020.796875	3254.503906
2019.265625	3217.873291
2017.734375	3238.416504
2016.203125	3211.601318
2014.671875	3269.681885
2013.140625	3216.758789
2011.607422	3255.233154
2010.076172	3203.966797
2008.542969	3183.711426
2007.009766	3289.024902
2005.476563	3183.984131
2003.943359	3136.036621
2002.408203	3221.737549
2000.875	3271.558105
1999.339844	3182.899658
1997.804688	3258.76416
1996.269531	3222.249023
1994.732422	3206.911865
1993.197266	3248.544678
1991.660156	3200.664795
1990.123047	3217.878662
1988.585938	3267.61499
1987.048828	3188.864746
1985.511719	3131.283203
1983.972656	3187.507813
1982.435547	3165.703369
1980.896484	3207.273682
1979.357422	3152.986084
1977.818359	3199.413574
1976.279297	3232.831543
1974.738281	3136.36499
1973.197266	3221.719238
1971.658203	3175.599121
1970.117188	3207.371338
1968.576172	3205.067871
1967.033203	3186.548828
1965.492188	3275.043945
1963.949219	3196.541992
1962.40625	3284.997314
1960.863281	3157.918213
1959.320313	3178.306885
1957.777344	3172.773438
1956.232422	3209.342773
1954.689453	3130.954346
1953.144531	3167.516602
1951.599609	3270.4104
1950.054688	3158.083496
1948.507813	3178.441406
1946.962891	3140.572021
1945.416016	3217.51416
1943.869141	3171.569824
1942.322266	3242.008301
1940.775391	3254.247314
1939.228516	3237.402832
1937.679688	3256.098145
1936.132813	3179.512939
1934.583984	3215.971436
1933.035156	3200.762939
1931.486328	3251.725098
1929.935547	3192.953125
1928.386719	3187.4375
1926.835938	3194.825928
1925.285156	3200.598633
1923.734375	3048.388184
1922.183594	3176.679199
1920.632813	3171.172607
1919.080078	3218.831787
1917.527344	3190.768799
1915.976563	3151.444824
1914.423828	3139.507813
1912.869141	3183.913818
1911.316406	3171.974609
1909.761719	3137.514648
1908.208984	3101.460693
1906.654297	3219.818604
1905.099609	3170.898438
1903.544922	3191.126709
1901.988281	3184.022461
1900.433594	3178.528076
1898.876953	3129.657715
1897.320313	3137.0271
1895.763672	3094.609619
1894.207031	3095.560791
1892.648438	3083.669434
1891.091797	3174.496826
1889.533203	3000.532715
1887.974609	3157.112305
1886.416016	3145.217529
1884.857422	3120.499512
1883.298828	3063.727539
1881.738281	3127.19458
1880.177734	3107.303223
1878.617188	3034.547852
1877.056641	3062.739746
1875.496094	3204.627197
1873.935547	3125.492432
1872.373047	3065.60083
1870.810547	3149.779541
1869.248047	3083.507324
1867.685547	3089.255127
1866.123047	3090.20166
1864.560547	3187.09668
1862.996094	3100.087646
1861.431641	3150.58374
1859.867188	3114.759277
1858.302734	3090.134277
1856.738281	3132.613037
1855.171875	3098.411621
1853.607422	3075.402344
1852.041016	3081.138428
1850.474609	3018.239502
1848.908203	3047.921631
1847.341797	3106.308838
1845.773438	3112.033203
1844.207031	3136.89209
1842.638672	3096.368896
1841.070313	3114.843994
1839.501953	3146.061279
1837.931641	3068.912842
1836.363281	3077.823242
1834.792969	3094.693359
1833.222656	3076.523438
1831.652344	3053.584961
1830.082031	3193.012451
1828.511719	3120.725342
1826.941406	3175.753418
1825.369141	3122.588867
1823.796875	3166.460205
1822.224609	3046.537842
1820.652344	3079.278564
1819.078125	3030.947021
1817.505859	3170.142822
1815.931641	3080.505615
1814.357422	3051.264404
1812.783203	3204.659668
1811.208984	3165.878174
1809.634766	3063.618164
1808.058594	3075.66748
1806.484375	3055.977783
1804.908203	3082.300537
1803.332031	3045.170898
1801.753906	3012.813965
1800.177734	3034.372803
1798.601563	3127.248291
1797.023438	3126.587891
1795.445313	3013.438477
1793.867188	3079.330811
1792.289063	3156.281006
1790.708984	3244.281982
1789.130859	3115.372559
1787.550781	3141.620117
1785.970703	3110.89209
1784.390625	3130.80127
1782.810547	3147.53833
1781.228516	3123.15332
1779.646484	3182.572021
1778.066406	3117.092041
1776.484375	3062.701904
1774.902344	3047.834961
1773.318359	3184.622559
1771.736328	3093.92749
1770.152344	3083.799805
1768.568359	3125.772217
1766.984375	3088.810059
1765.400391	3151.277588
1763.816406	3041.752441
1762.230469	3121.553955
1760.646484	3092.508301
1759.060547	3112.351318
1757.474609	3017.113281
1755.888672	3052.723877
1754.300781	3053.654297
1752.714844	3056.159424
1751.126953	3016.138184
1749.539063	3075.338379
1747.951172	3082.559814
1746.363281	3074.038086
1744.775391	3104.861816
1743.185547	3064.871826
1741.595703	3079.953857
1740.007813	3109.18335
1738.416016	3103.808838
1736.826172	3049.704102
1735.236328	3083.635986
1733.644531	3045.271484
1732.052734	3160.882568
1730.462891	3158.643311
1728.869141	3117.145996
1727.277344	3144.746826
1725.685547	3103.269775
1724.091797	3077.503418
1722.498047	3106.663574
1720.904297	3168.753906
1719.310547	3103.780518
1717.716797	3048.24292
1716.121094	3111.873047
1714.527344	3145.696533
1712.931641	3088.617432
1711.335938	3116.164063
1709.740234	3076.345215
1708.142578	3166.523926
1706.546875	3153.327881
1704.949219	3101.002686
1703.351563	3147.297363
1701.753906	3116.901123
1700.15625	3119.369629
1698.558594	3146.861816
1696.958984	3139.940186
1695.359375	3165.852539
1693.759766	3166.744873
1692.160156	3116.06665
1690.560547	3137.279785
1688.960938	3233.462646
1687.359375	3162.499512
1685.757813	3180.565918
1684.15625	3178.330566
1682.554688	3258.814941
1680.953125	3176.98291
1679.349609	3223.111328
1677.748047	3208.390137
1676.144531	3195.234375
1674.541016	3320.842285
1672.9375	3231.289063
1671.332031	3292.940186
1669.728516	3303.148193
1668.123047	3277.522949
1666.517578	3373.387939
1664.912109	3441.184326
1663.306641	3351.718262
1661.701172	3379.022461
1660.09375	3387.641846
1658.486328	3506.717041
1656.878906	3524.637939
1655.271484	3587.648926
1653.664063	3554.236572
1652.056641	3593.897217
1650.447266	3723.680176
1648.837891	3573.724854
1647.228516	3695.688965
1645.619141	3679.372314
1644.009766	3777.969727
1642.398438	3822.188477
1640.789063	3720.486572
1639.177734	3822.115234
1637.566406	3858.538086
1635.955078	3927.519287
1634.341797	3824.32959
1632.730469	3835.920166
1631.117188	3957.566895
1629.503906	3911.779785
1627.890625	4024.061035
1626.277344	3975.18042
1624.662109	4022.348389
1623.048828	4030.783203
1621.433594	3955.612305
1619.818359	3900.594971
1618.203125	3850.243652
1616.587891	3799.91333
1614.970703	3888.822266
1613.353516	3911.191895
1611.738281	3802.124023
1610.121094	3892.520508
1608.501953	3950.421875
1606.884766	3842.959717
1605.267578	4005.898682
1603.648438	3924.727539
1602.029297	4005.734863
1600.410156	3970.914795
1598.791016	3985.503662
1597.169922	4149.780273
1595.550781	4084.092529
1593.929688	4066.252686
1592.308594	3957.427002
1590.6875	4095.355713
1589.064453	3969.612305
1587.443359	3987.26001
1585.820313	3992.572266
1584.197266	3960.907471
1582.574219	4060.179688
1580.951172	3966.915283
1579.328125	3938.354492
1577.703125	4040.645508
1576.080078	4067.483398
1574.455078	4174.318359
1572.830078	4171.887695
1571.203125	4226.362793
1569.578125	4134.737793
1567.951172	4243.00293
1566.324219	4215.966797
1564.697266	4132.084961
1563.070313	4249.498535
1561.443359	4139.532715
1559.816406	4101.790527
1558.1875	4285.153809
1556.558594	4184.460449
1554.929688	4264.902832
1553.300781	4308.48584
1551.669922	4385.79834
1550.041016	4426.269043
1548.410156	4460.587891
1546.779297	4543.949707
1545.148438	4469.405273
1543.517578	4370.374023
1541.884766	4135.031738
1540.251953	4222.985352
1538.621094	3977.054932
1536.988281	3908.834473
1535.353516	3735.021484
1533.720703	3890.32251
1532.085938	3751.779541
1530.453125	3743.325439
1528.818359	3800.640137
1527.183594	3755.47998
1525.546875	3754.67334
1523.912109	3770.679688
1522.275391	3690.407471
1520.640625	3753.781494
1519.003906	3733.117676
1517.365234	3723.152588
1515.728516	3711.664307
1514.091797	3807.03418
1512.453125	3803.163086
1510.814453	3777.931885
1509.175781	3832.036865
1507.537109	3796.133545
1505.896484	3899.005371
1504.257813	3866.151367
1502.617188	3783.013184
1500.976563	3870.582031
1499.335938	3848.418945
1497.693359	3905.471436
1496.052734	3775.186279
1494.410156	3852.022217
1492.767578	3905.991455
1491.125	3880.799316
1489.482422	3841.923584
1487.837891	3869.998291
1486.195313	3895.019043
1484.550781	3843.999756
1482.90625	3806.68457
1481.261719	3839.301025
1479.617188	4007.146484
1477.970703	3977.415283
1476.324219	4035.794678
1474.677734	4095.667236
1473.03125	4049.234131
1471.384766	4008.892822
1469.738281	3941.251221
1468.089844	4057.230713
1466.441406	4109.447266
1464.792969	4129.791504
1463.144531	4262.333008
1461.496094	4165.904785
1459.845703	4296.864746
1458.197266	4206.53125
1456.546875	4099.571289
1454.896484	4057.787598
1453.244141	3973.620605
1451.59375	3850.125244
1449.941406	3896.215332
1448.291016	3890.831299
1446.638672	3755.328857
1444.984375	3757.540283
1443.332031	3723.453613
1441.679688	3671.237061
1440.025391	3696.139893
1438.371094	3660.576416
1436.716797	3605.384033
1435.0625	3584.962402
1433.40625	3552.46582
1431.75	3495.821777
1430.095703	3501.101807
1428.439453	3459.587158
1426.78125	3526.744873
1425.125	3364.541016
1423.466797	3398.503906
1421.810547	3459.597656
1420.152344	3378.93335
1418.494141	3367.646484
1416.833984	3341.292969
1415.175781	3296.869141
1413.515625	3372.981689
1411.855469	3447.554688
1410.195313	3493.484375
1408.535156	3512.295166
1406.875	3704.19043
1405.212891	3876.438965
1403.550781	4003.477051
1401.888672	4183.105469
1400.226563	4288.966797
1398.564453	4351.179688
1396.900391	4297.619629
1395.238281	4386.854004
1393.574219	4232.638672
1391.910156	4144.587402
1390.244141	4187.237305
1388.580078	4021.152832
1386.914063	3960.226074
1385.248047	4001.386475
1383.582031	4035.025635
1381.916016	4106.155762
1380.25	4178.754395
1378.582031	4278.312988
1376.916016	4386.82373
1375.248047	4408.348633
1373.578125	4438.85498
1371.910156	4433.38916
1370.242188	4418.937988
1368.572266	4377.535156
1366.902344	4246.312988
1365.232422	4224.425781
1363.5625	4233.977539
1361.890625	4098.382813
1360.220703	4203.699219
1358.548828	4139.960938
1356.876953	4164.474121
1355.205078	4160.571289
1353.53125	4114.818848
1351.859375	4414.278809
1350.185547	4461.118652
1348.511719	4633.407227
1346.837891	4850.42041
1345.164063	5167.371094
1343.488281	5330.433594
1341.8125	5641.168945
1340.138672	5948.783203
1338.460938	6169.742188
1336.785156	6392.094727
1335.109375	6581.545898
1333.431641	6621.839355
1331.753906	6493.69873
1330.076172	6368.594238
1328.398438	6300.154297
1326.720703	6193.019043
1325.041016	6100.821289
1323.361328	6092.034668
1321.681641	5885.288574
1320.001953	5745.598145
1318.322266	5619.358398
1316.640625	5439.625488
1314.960938	5295.662598
1313.279297	5153.249023
1311.597656	4991.574219
1309.914063	4816.594238
1308.232422	4677.351074
1306.548828	4615.413574
1304.865234	4403.502441
1303.181641	4230.289551
1301.498047	4115.048828
1299.814453	4038.447021
1298.128906	3850.589844
1296.443359	3840.837891
1294.757813	3796.976563
1293.072266	3690.85376
1291.386719	3664.834717
1289.699219	3546.929443
1288.011719	3525.398682
1286.324219	3526.100098
1284.636719	3519.39502
1282.949219	3460.86084
1281.259766	3531.162109
1279.572266	3537.78125
1277.882813	3667.230225
1276.193359	3703.407471
1274.501953	3726.254883
1272.8125	3768.317871
1271.121094	3758.61084
1269.429688	3697.167969
1267.738281	3712.605469
1266.046875	3679.27417
1264.353516	3601.638428
1262.662109	3562.437988
1260.96875	3564.600342
1259.275391	3357.125488
1257.582031	3461.174316
1255.886719	3399.903564
1254.193359	3316.530029
1252.498047	3314.317871
1250.802734	3403.535645
1249.107422	3385.08667
1247.410156	3471.300537
1245.714844	3505.896729
1244.017578	3484.489502
1242.320313	3421.84668
1240.623047	3440.22998
1238.925781	3387.930664
1237.226563	3344.486816
1235.527344	3320.194092
1233.828125	3292.969238
1232.128906	3259.871826
1230.429688	3197.374268
1228.728516	3246.655029
1227.029297	3050.4104
1225.328125	2986.530762
1223.626953	3123.989746
1221.923828	3070.405029
1220.222656	2987.46875
1218.519531	3049.944336
1216.816406	3028.709473
1215.113281	3067.662842
1213.410156	3033.22583
1211.707031	2982.665527
1210.001953	2945.328857
1208.296875	2972.532959
1206.591797	2982.131104
1204.886719	2993.190186
1203.179688	2863.557617
1201.474609	2940.570068
1199.767578	2956.024658
1198.060547	3008.084717
1196.353516	2948.843994
1194.644531	2855.960938
1192.9375	2894.835938
1191.228516	2941.009033
1189.519531	2875.983643
1187.810547	3039.142334
1186.099609	2934.644043
1184.390625	2933.985596
1182.679688	2931.865479
1180.96875	2890.293213
1179.257813	2875.035156
1177.544922	2843.717529
1175.833984	2873.743652
1174.121094	2880.397461
1172.408203	2933.754639
1170.695313	2830.94751
1168.982422	2841.982178
1167.267578	2902.604004
1165.552734	2875.702148
1163.837891	2818.195557
1162.123047	2746.138428
1160.408203	2757.178467
1158.691406	2739.073975
1156.976563	2704.95459
1155.259766	2708.714111
1153.541016	2680.44043
1151.824219	2751.162598
1150.107422	2738.899902
1148.388672	2697.542725
1146.669922	2772.576416
1144.951172	2723.958008
1143.230469	2800.405273
1141.511719	2734.35791
1139.791016	2752.634277
1138.070313	2778.166748
1136.349609	2745.580078
1134.628906	2743.507568
1132.90625	2747.243652
1131.185547	2675.489258
1129.462891	2645.856689
1127.740234	2681.534668
1126.015625	2686.730957
1124.292969	2635.359375
1122.568359	2691.31543
1120.84375	2722.600342
1119.119141	2700.24292
1117.394531	2698.182373
1115.667969	2712.058594
1113.941406	2850.492676
1112.214844	2780.338135
1110.488281	2729.036133
1108.761719	2755.918701
1107.033203	2714.774658
1105.306641	2676.542725
1103.578125	2606.505615
1101.849609	2574.099365
1100.119141	2554.719727
1098.390625	2476.084473
1096.660156	2478.412598
1094.929688	2487.963135
1093.199219	2493.175781
1091.46875	2413.180908
1089.736328	2467.497559
1088.003906	2403.422607
1086.273438	2418.750977
1084.539063	2354.71582
1082.806641	2445.05835
1081.074219	2405.562988
1079.339844	2405.015381
1077.605469	2361.221924
1075.871094	2380.861084
1074.134766	2371.673584
1072.400391	2433.076416
1070.664063	2354.750488
1068.927734	2423.328125
1067.191406	2317.687988
1065.455078	2403.513184
1063.716797	2343.969971
1061.978516	2365.013672
1060.240234	2380.294678
1058.501953	2359.620605
1056.763672	2361.957031
1055.023438	2400.223633
1053.283203	2336.450439
1051.542969	2396.253906
1049.802734	2444.539795
1048.0625	2359.26001
1046.320313	2429.065918
1044.578125	2447.169189
1042.835938	2489.658447
1041.09375	2469.003906
1039.351563	2474.176025
1037.607422	2482.213623
1035.863281	2507.451172
1034.119141	2492.543701
1032.375	2433.220215
1030.628906	2568.765625
1028.884766	2476.507568
1027.138672	2498.852051
1025.392578	2561.273193
1023.646484	2564.97998
1021.898438	2502.857666
1020.152344	2543.773682
1018.404297	2577.518799
1016.65625	2589.797363
1014.90625	2660.688477
1013.158203	2641.495605
1011.408203	2589.443115
1009.658203	2611.707764
1007.908203	2529.689209
1006.158203	2520.539307
1004.40625	2512.821289
1002.65625	2525.090332
1000.904297	2500.249023
999.150391	2472.565674
997.398438	2471.996826
995.646484	2384.436035
993.892578	2419.531494
992.138672	2421.825195
990.384766	2382.789551
988.628906	2433.532959
986.875	2450.065918
985.119141	2462.318359
983.363281	2466.022217
981.607422	2419.902832
979.849609	2437.845703
978.09375	2431.592041
976.335938	2361.329346
974.578125	2410.560059
972.820313	2394.363525
971.060547	2335.529297
969.300781	2344.938232
967.542969	2333.030029
965.78125	2359.480957
964.021484	2405.802246
962.261719	2471.979736
960.5	2607.683838
958.738281	2590.050537
956.976563	2599.383789
955.214844	2601.619629
953.451172	2523.015625
951.6875	2420.343506
949.923828	2320.553955
948.160156	2286.003174
946.396484	2325.147217
944.630859	2245.280273
942.865234	2260.339111
941.099609	2317.868408
939.333984	2301.759766
937.568359	2227.632324
935.800781	2255.414795
934.033203	2232.258057
932.265625	2282.654541
930.498047	2279.297119
928.730469	2339.554443
926.960938	2259.866699
925.191406	2185.867676
923.421875	2285.657959
921.652344	2228.634521
919.880859	2271.888672
918.109375	2224.776123
916.337891	2198.855225
914.566406	2220.920166
912.794922	2158.334229
911.021484	2147.960205
909.248047	2158.740723
907.474609	2106.080078
905.701172	2114.046387
903.927734	2089.60083
902.152344	2177.863281
900.376953	2149.188721
898.601563	2182.481689
896.826172	2176.342529
895.050781	2167.391357
893.273438	2228.797363
891.496094	2233.905029
889.71875	2151.8125
887.939453	2106.316162
886.162109	2159.243896
884.382813	2196.687012
882.603516	2193.364502
880.824219	2101.542725
879.044922	2167.061279
877.263672	2054.226074
875.482422	2126.743652
873.701172	2102.388428
871.919922	2073.834717
870.138672	1926.055542
868.355469	2026.584229
866.572266	2005.078491
864.789063	1977.975342
863.005859	1931.26355
861.220703	2016.283447
859.435547	1989.196045
857.650391	1995.733521
855.865234	2002.267578
854.080078	1992.000244
852.292969	2009.728027
850.505859	1944.894287
848.71875	1951.43335
846.931641	1935.592529
845.144531	1935.139282
843.355469	1934.686035
841.566406	1941.220703
839.777344	1894.656982
837.988281	1952.883301
836.197266	1900.751953
834.408203	1928.231567
832.617188	1926.383545
830.824219	1949.657104
829.033203	1924.084839
827.240234	1880.390015
825.449219	1875.765015
823.65625	1915.759277
821.861328	1870.702759
820.068359	1853.539917
818.273438	1918.590332
816.478516	1919.532837
814.683594	1924.652588
812.888672	1942.300781
811.091797	1919.572388
809.296875	1867.629272
807.5	1906.148071
805.701172	1921.001099
803.904297	1848.233398
802.105469	1893.680908
800.308594	1893.235474
798.509766	1940.040283
796.708984	1886.787231
794.910156	1825.224487
793.109375	1926.172485
791.308594	1949.321899
789.507813	1909.996704
787.707031	1980.322388
785.904297	1911.87207
784.101563	1930.841064
782.298828	1908.197876
780.496094	1814.856445
778.693359	1896.209595
776.888672	1873.589966
775.083984	1921.639526
773.279297	1908.720215
771.474609	1949.814453
769.667969	1892.590698
767.861328	1939.205566
766.054688	1962.273193
764.248047	1878.799805
762.441406	1990.393799
760.632813	1994.07251
758.824219	1961.803589
757.015625	1943.371826
755.207031	2029.970825
753.398438	2115.147217
751.587891	2135.365723
749.777344	2159.717285
747.966797	2188.198975
746.154297	2416.801758
744.34375	2674.274414
742.53125	3213.061279
740.71875	4048.134277
738.90625	5187.557129
737.091797	6661.442383
735.277344	8014.719238
733.464844	8834.085938
731.648438	8589.532227
729.833984	7978.730469
728.019531	6482.819336
726.203125	5092.241211
724.386719	3879.867188
722.568359	3124.899658
720.751953	2705.954102
718.933594	2445.37207
717.115234	2242.664063
715.296875	2089.54126
713.478516	2031.32251
711.658203	1948.398193
709.839844	1945.188965
708.019531	1965.328735
706.197266	1903.074585
704.376953	1865.559204
702.554688	1882.958252
700.734375	1863.302368
698.910156	1871.090942
697.087891	1832.246582
695.265625	1875.6875
693.441406	1908.141357
691.617188	1952.913818
689.792969	2033.288574
687.966797	1915.001709
686.140625	1959.740112
684.316406	1978.442993
682.490234	1941.014526
680.662109	1880.338745
678.835938	1849.79187
677.007813	1863.031006
675.179688	1820.19458
673.351563	1851.208008
671.521484	1779.689697
669.693359	1806.5979
667.863281	1817.098389
666.033203	1807.104858
664.201172	1828.524536
662.371094	1867.682373
660.539063	1889.077148
658.707031	1839.501709
656.875	1934.564331
655.041016	1849.538208
653.208984	1914.552856
651.375	1900.463989
649.541016	1985.880127
647.705078	1964.967407
645.871094	1974.036011
644.035156	1999.444336
642.199219	2031.648926
640.363281	1980.794312
638.525391	2063.346436
636.689453	2095.512207
634.851563	2003.866333
633.013672	2037.390747
631.173828	2020.588257
629.335938	2058.170654
627.496094	2010.111572
625.65625	2066.701172
623.816406	1990.135132
621.974609	1978.795654
620.132813	1953.883301
618.292969	1977.852051
616.449219	1952.951538
614.607422	1842.582153
612.763672	1846.212158
610.921875	1851.196533
609.078125	1815.502441
607.232422	1789.313965
605.388672	1794.307861
603.542969	1711.231201
601.697266	1727.077637
599.851563	1699.580444
598.005859	1681.57373
596.158203	1635.149902
594.310547	1657.765259
592.462891	1691.193359
590.615234	1677.263184
588.765625	1736.364258
586.916016	1750.821411
585.066406	1690.930054
583.216797	1724.309692
581.367188	1700.930542
579.515625	1750.499878
577.664063	1785.191284
575.8125	1759.11377
573.960938	1728.999512
572.107422	1781.213013
570.253906	1787.532715
568.400391	1792.500488
566.546875	1774.542358
564.693359	1803.776733
562.837891	1795.258789
560.982422	1837.948608
559.126953	1784.970337
557.269531	1780.503052
555.414063	1771.998291
553.556641	1716.381104
551.699219	1687.70752
549.841797	1719.596802
547.982422	1727.256714
546.123047	1759.121094
544.263672	1766.7677
542.404297	1736.771484
540.544922	1700.069824
538.683594	1760.125366
536.822266	1751.644531
534.960938	1733.766846
533.099609	1742.750488
531.236328	1683.27124
529.373047	1715.076416
527.509766	1746.866211
525.646484	1796.078247
523.783203	2079.948242
521.917969	2881.198242
520.052734	3637.831787
518.1875	3110.311768
516.320313	2277.580322
514.455078	1861.810913
512.587891	1735.488647
510.720703	1657.423218
508.853516	1638.28772
506.984375	1628.52832
505.115234	1628.138306
503.246094	1615.710815
501.376953	1567.185059
499.507813	1592.210205
497.636719	1601.184692
495.765625	1623.51709
493.894531	1608.433105
492.021484	1565.309082
490.150391	1583.627808
488.277344	1629.97168
486.404297	1597.550049
484.53125	1545.129272
482.65625	1528.751221
480.78125	1527.05127
478.90625	1549.352295
477.03125	1575.641724
475.15625	1551.275391
473.279297	1562.895142
471.402344	1558.524414
469.525391	1523.525391
467.648438	1547.126099
465.769531	1549.417603
463.890625	1549.046265
462.011719	1581.937012
460.132813	1512.389648
458.251953	1533.304688
456.371094	1507.67627
454.490234	1480.730957
452.609375	1477.718262
450.728516	1535.820923
448.845703	1523.498657
446.962891	1535.084839
445.080078	1510.819946
443.197266	1527.712646
441.3125	1556.539917
439.427734	1500.447266
437.542969	1529.26709
435.658203	1555.421021
433.771484	1520.579956
431.886719	1552.024658
430	1510.575684
428.111328	1527.435303
426.224609	1484.687378
424.335938	1510.813843
422.447266	1519.718384
420.558594	1474.355835
418.669922	1496.496216
416.779297	1521.271606
414.888672	1495.778931
412.998047	1453.109741
411.107422	1468.624146
409.214844	1465.629028
407.324219	1453.386475
405.431641	1445.112549
403.537109	1501.553101
401.644531	1445.740234
399.75	1458.59375
