#Wave		#Intensity
1585.210938	7830.119629
1584.209961	7870.082031
1583.208984	7910.902832
1582.208008	7871.814453
1581.206055	7915.113281
1580.204102	7993.332031
1579.202148	7979.200684
1578.200195	7902.711426
1577.198242	8150.477051
1576.195313	8208.632813
1575.192383	7997.521484
1574.189453	8068.146484
1573.186523	8106.347168
1572.182617	8017.467285
1571.178711	8010.825195
1570.174805	7857.250977
1569.170898	8042.365723
1568.166992	8030.742676
1567.162109	7852.370117
1566.158203	7878.115723
1565.153320	7814.288574
1564.147461	7767.898438
1563.142578	7736.448242
1562.136719	7874.078613
1561.130859	8053.909668
1560.125000	8027.389160
1559.119141	7973.547363
1558.113281	7870.042969
1557.106445	7895.733887
1556.099609	8055.507324
1555.092773	8173.008301
1554.084961	8086.922363
1553.078125	8025.687988
1552.070313	8242.367188
1551.062500	8302.676758
1550.054688	8124.869141
1549.045898	8081.033691
1548.038086	8047.132324
1547.029297	7911.623047
1546.020508	7877.770020
1545.011719	7836.498047
1544.001953	7909.187012
1542.992188	7746.575195
1541.982422	7814.299805
1540.972656	7572.558105
1539.962891	7618.015137
1538.952148	7717.891602
1537.942383	7642.074707
1536.931641	7665.227051
1535.919922	7497.953125
1534.909180	7565.628418
1533.897461	7571.478027
1532.886719	7480.939453
1531.874023	7526.337891
1530.862305	7482.782715
1529.850586	7612.136719
1528.837891	7529.071777
1527.825195	7529.981934
1526.812500	7590.130859
1525.799805	7531.799316
1524.786133	7670.876953
1523.772461	7723.558105
1522.758789	7657.835449
1521.745117	7582.275879
1520.731445	7588.102051
1519.716797	7608.713379
1518.702148	7567.709961
1517.687500	7704.111816
1516.672852	7739.464844
1515.657227	7752.638672
1514.642578	7763.344238
1513.626953	7732.195801
1512.610352	7824.119629
1511.594727	7728.993652
1510.579102	7633.906250
1509.562500	7738.090820
1508.545898	7734.028809
1507.529297	7855.358887
1506.511719	7674.288086
1505.494141	7790.664551
1504.477539	7658.823730
1503.458984	7556.516113
1502.441406	7827.577637
1501.423828	7636.875488
1500.405273	7748.227051
1499.386719	7911.078125
1498.368164	7614.951660
1497.348633	7826.833008
1496.330078	7771.244629
1495.310547	7762.276855
1494.291016	7763.120117
1493.271484	7771.317871
1492.250977	7875.100586
1491.231445	7760.745605
1490.210938	7717.487305
1489.190430	7659.549805
1488.168945	7829.390625
1487.148438	7874.289063
1486.126953	7750.258789
1485.105469	8052.137207
1484.083984	7876.734375
1483.061523	7958.280762
1482.040039	7804.982910
1481.017578	7908.518066
1479.995117	8078.022949
1478.971680	8105.681152
1477.949219	8216.419922
1476.925781	8578.783203
1475.902344	8550.132813
1474.878906	8494.626953
1473.855469	8412.283203
1472.831055	8723.034180
1471.806641	8899.409180
1470.782227	8799.948242
1469.757813	8756.645508
1468.733398	8979.249023
1467.708008	8992.019531
1466.682617	9185.221680
1465.657227	9217.445313
1464.631836	9330.086914
1463.605469	9393.945313
1462.579102	9825.660156
1461.552734	9670.165039
1460.526367	9833.758789
1459.500000	9936.414063
1458.472656	9871.060547
1457.445313	9769.226563
1456.417969	9920.495117
1455.390625	9512.162109
1454.362305	9534.509766
1453.334961	9318.534180
1452.306641	9287.424805
1451.277344	9093.465820
1450.249023	8863.133789
1449.219727	9011.937500
1448.191406	8944.476563
1447.162109	8765.321289
1446.131836	8520.676758
1445.102539	8511.623047
1444.072266	8497.718750
1443.041992	8447.418945
1442.011719	8576.679688
1440.981445	8409.949219
1439.950195	8582.816406
1438.918945	8440.400391
1437.887695	8319.860352
1436.856445	8458.705078
1435.825195	8265.514648
1434.792969	8443.075195
1433.760742	8194.257813
1432.728516	8207.083984
1431.696289	8072.212402
1430.663086	8138.312988
1429.629883	7938.166504
1428.596680	7854.246582
1427.563477	7821.164063
1426.530273	7938.051270
1425.496094	7813.074219
1424.461914	7751.007324
1423.427734	7846.080566
1422.393555	7858.948242
1421.358398	7712.343750
1420.323242	7754.220215
1419.288086	7716.379395
1418.252930	7702.700195
1417.217773	7809.732910
1416.181641	7923.961426
1415.145508	7700.303711
1414.109375	7911.011719
1413.073242	7952.782715
1412.036133	8105.470703
1411.000000	8226.750000
1409.962891	8338.334961
1408.924805	8413.721680
1407.887695	8602.329102
1406.849609	8790.856445
1405.812500	8919.089844
1404.773438	9345.875000
1403.735352	9341.519531
1402.697266	9727.117188
1401.658203	9751.562500
1400.619141	9744.716797
1399.580078	9995.273438
1398.540039	9937.872070
1397.500977	9760.264648
1396.460938	9996.234375
1395.420898	9787.440430
1394.380859	9703.694336
1393.339844	9432.579102
1392.298828	9372.960938
1391.257813	9099.625977
1390.216797	9169.759766
1389.175781	9220.659180
1388.133789	9021.927734
1387.091797	8967.253906
1386.049805	8960.583984
1385.007813	9186.578125
1383.964844	9434.061523
1382.922852	9475.248047
1381.879883	9734.550781
1380.835938	9715.741211
1379.792969	9979.676758
1378.749023	10183.612305
1377.706055	10265.312500
1376.661133	10354.162109
1375.617188	10488.460938
1374.573242	10529.352539
1373.528320	10498.435547
1372.483398	10532.128906
1371.438477	10675.844727
1370.392578	10539.683594
1369.347656	10367.713867
1368.301758	10415.747070
1367.255859	9942.723633
1366.208984	10105.524414
1365.163086	9900.338867
1364.116211	9752.564453
1363.069336	9542.760742
1362.022461	9509.725586
1360.974609	9417.026367
1359.927734	9415.054688
1358.879883	9293.780273
1357.832031	9339.545898
1356.783203	9285.118164
1355.735352	9190.174805
1354.686523	9448.115234
1353.637695	9369.861328
1352.588867	9582.375977
1351.539063	9773.357422
1350.490234	10007.135742
1349.440430	10178.894531
1348.390625	10564.877930
1347.339844	11012.594727
1346.290039	11481.542969
1345.239258	11633.809570
1344.188477	12307.031250
1343.137695	12492.359375
1342.085938	13091.395508
1341.034180	13326.409180
1339.982422	13520.912109
1338.930664	13922.096680
1337.878906	14102.133789
1336.826172	14305.851563
1335.773438	14385.977539
1334.720703	14378.208008
1333.667969	14401.303711
1332.614258	14315.204102
1331.561523	14307.451172
1330.507813	13967.536133
1329.453125	13850.741211
1328.399414	13686.561523
1327.344727	13531.934570
1326.290039	13434.266602
1325.235352	12843.654297
1324.180664	12959.435547
1323.125000	12788.502930
1322.070313	12586.850586
1321.014648	12453.957031
1319.958008	12181.428711
1318.902344	12067.611328
1317.845703	11641.446289
1316.789063	11392.918945
1315.732422	11295.896484
1314.675781	10889.081055
1313.618164	10787.474609
1312.560547	10364.386719
1311.502930	10248.750000
1310.445313	9965.377930
1309.386719	10045.971680
1308.329102	9554.890625
1307.270508	9425.348633
1306.210938	9397.390625
1305.152344	9310.426758
1304.092773	9004.003906
1303.033203	8855.807617
1301.973633	8983.694336
1300.914063	8889.812500
1299.853516	8772.387695
1298.792969	8567.777344
1297.732422	8391.540039
1296.671875	8394.482422
1295.611328	8317.314453
1294.549805	8183.640625
1293.488281	8146.585938
1292.426758	8104.836426
1291.364258	7985.416016
1290.302734	8049.633301
1289.240234	7946.746094
1288.177734	8168.574219
1287.114258	8032.773438
1286.051758	7934.656250
1284.988281	8144.588867
1283.924805	7891.341309
1282.861328	8148.197266
1281.796875	8125.327637
1280.732422	8337.388672
1279.667969	8380.251953
1278.603516	8430.140625
1277.539063	8592.699219
1276.473633	8734.062500
1275.408203	8915.259766
1274.342773	8842.986328
1273.277344	8794.200195
1272.210938	8850.969727
1271.145508	9064.813477
1270.079102	8990.221680
1269.011719	8852.379883
1267.945313	8766.147461
1266.877930	8874.401367
1265.810547	8553.971680
1264.743164	8772.286133
1263.674805	8423.917969
1262.607422	8181.031738
1261.539063	8275.249023
1260.470703	8170.543945
1259.401367	8213.257813
1258.333008	7914.488770
1257.263672	8050.770020
1256.194336	7995.292480
1255.125000	7925.813965
1254.054688	7961.520996
1252.985352	7920.113281
1251.915039	7766.604004
1250.843750	7874.714844
1249.773438	7658.238770
1248.702148	7925.060547
1247.630859	7907.040039
1246.559570	7910.026855
1245.488281	7955.002930
1244.416016	8020.950195
1243.343750	7907.316406
1242.271484	7854.345703
1241.199219	7857.337402
1240.125977	7948.880859
1239.053711	7793.418945
1237.980469	7761.479004
1236.906250	8034.635254
1235.833008	7932.805176
1234.758789	7924.133301
1233.684570	7824.695801
1232.610352	7660.146973
1231.536133	7807.405762
1230.460938	7663.862793
1229.385742	7811.056641
1228.310547	7730.345215
1227.235352	7923.949707
1226.159180	7820.008301
1225.083008	7841.575684
1224.006836	7846.872559
1222.930664	8028.672363
1221.853516	7836.560547
1220.777344	7783.817383
1219.700195	7747.342773
1218.622070	7905.801270
1217.544922	7653.558105
1216.466797	7726.147949
1215.388672	7606.230957
1214.310547	7667.206055
1213.232422	7762.923828
1212.153320	7680.153809
1211.074219	7741.072266
1209.995117	7723.202637
1208.916016	7772.504395
1207.835938	7710.640137
1206.755859	7787.702637
1205.675781	7744.376465
1204.595703	7578.424805
1203.514648	7678.599121
1202.434570	7639.948242
1201.353516	7617.500977
1200.271484	7495.645020
1199.190430	7600.372070
1198.108398	7485.503418
1197.026367	7437.689941
1195.944336	7549.290527
1194.862305	7268.215820
1193.779297	7255.113770
1192.696289	7304.348145
1191.613281	7376.641602
1190.530273	7285.064941
1189.446289	7366.559082
1188.362305	7355.753418
1187.278320	7181.218262
1186.194336	7209.650879
1185.109375	7263.427734
1184.024414	7192.730469
1182.939453	7163.537598
1181.854492	7219.591309
1180.768555	7171.979004
1179.683594	7138.202148
1178.597656	7053.791992
1177.510742	6994.735840
1176.424805	6908.090820
1175.337891	7060.751465
1174.250977	7066.134766
1173.164063	7060.017090
1172.077148	7035.507813
1170.989258	7107.553223
1169.901367	7073.850098
1168.813477	7173.428223
1167.724609	7020.269531
1166.636719	6945.264160
1165.547852	7074.654297
1164.458984	7137.412109
1163.369141	7080.790527
1162.280273	7086.150391
1161.190430	6930.910156
1160.100586	7177.142578
1159.010742	6960.030762
1157.919922	7109.853516
1156.829102	7085.398926
1155.738281	7040.328125
1154.647461	7116.713867
1153.555664	7181.612793
1152.464844	7255.643555
1151.373047	7354.830078
1150.280273	7167.810059
1149.188477	7214.328613
1148.095703	7139.545898
1147.002930	7238.668945
1145.910156	7175.348633
1144.817383	7329.304199
1143.723633	7206.545410
1142.629883	7234.705078
1141.536133	7144.013672
1140.441406	7149.324707
1139.347656	7261.998047
1138.252930	7175.925293
1137.158203	7103.589355
1136.062500	7127.165527
1134.967773	7114.211914
1133.872070	7083.008789
1132.776367	7188.702637
1131.679688	7109.596191
1130.583984	7222.078613
1129.487305	7010.762207
1128.390625	7114.098633
1127.292969	7139.905273
1126.196289	7236.332031
1125.098633	7207.429199
1124.000977	7240.029785
1122.903320	7286.277344
1121.804688	7234.615723
1120.706055	7208.011719
1119.607422	7197.347168
1118.508789	7179.861816
1117.409180	7239.715820
1116.310547	7290.447754
1115.210938	7229.754883
1114.110352	7319.106445
1113.010742	7206.164551
1111.910156	7245.496582
1110.809570	7280.268066
1109.708984	7269.603027
1108.607422	7236.236328
1107.506836	7293.686035
1106.405273	7212.666504
1105.303711	7115.798340
1104.201172	7105.177246
1103.098633	7117.241211
1101.996094	7083.947266
1100.893555	6948.647949
1099.791016	7017.401367
1098.687500	6995.479492
1097.583984	6855.754883
1096.480469	6838.407227
1095.376953	7011.294922
1094.272461	6794.675293
1093.167969	6872.423340
1092.063477	6900.347656
1090.958008	6844.540527
1089.853516	6743.514160
1088.748047	6771.446289
1087.642578	6842.328125
1086.536133	6895.093262
1085.430664	6809.962891
1084.324219	6639.000000
1083.217773	6816.029297
1082.110352	6794.213867
1081.003906	6765.632813
1079.896484	6723.517090
1078.789063	6882.313477
1077.680664	6621.285156
1076.573242	6676.245605
1075.464844	6681.555176
1074.356445	6763.540039
1073.247070	6804.903320
1072.138672	6868.790527
1071.029297	6912.364746
1069.919922	6635.951660
1068.809570	6693.073730
1067.700195	6655.573242
1066.589844	7003.148926
1065.479492	6938.580078
1064.368164	6986.580078
1063.257813	6836.528809
1062.146484	6713.540527
1061.035156	6856.029297
1059.922852	6942.233887
1058.811523	6704.634766
1057.699219	6678.439453
1056.586914	6838.788086
1055.473633	6994.571777
1054.361328	6887.458008
1053.248047	6872.472656
1052.134766	6954.046387
1051.021484	6867.214355
1049.907227	6832.041992
1048.792969	6828.299316
1047.678711	6723.602539
1046.564453	6883.619629
1045.449219	6891.078613
1044.333984	6983.728027
1043.218750	6975.470215
1042.103516	6846.202637
1040.987305	7039.621094
1039.871094	6957.434570
1038.754883	7155.222168
1037.638672	6828.992676
1036.521484	7158.792480
1035.404297	7291.500488
1034.287109	6999.017090
1033.169922	7133.937500
1032.051758	7168.152832
1030.933594	7244.837891
1029.815430	7225.359375
1028.697266	7243.884766
1027.578125	7186.425293
1026.458984	7437.295410
1025.339844	7288.239746
1024.220703	7288.867676
1023.100586	7396.660156
1021.980469	7198.603516
1020.860352	7268.429199
1019.740234	7335.992188
1018.619141	7512.827148
1017.498047	7435.344727
1016.376953	7422.556641
1015.255859	7342.898438
1014.133789	7312.305176
1013.011719	7424.329590
1011.889648	7511.798828
1010.767578	7401.007324
1009.644531	7392.693359
1008.521484	7388.834473
1007.398438	7409.459961
1006.274414	7443.426758
1005.151367	7410.635742
1004.027344	7342.270508
1002.902344	7278.381836
1001.778320	7230.083984
1000.653320	7186.252441
999.528320	7289.110840
998.403320	7249.728027
997.278320	7041.542480
996.152344	7119.934082
995.026367	7036.206055
993.900391	7161.179199
992.773438	7144.058105
991.646484	7102.537109
990.519531	7151.986328
989.392578	7028.418945
988.265625	7064.557129
987.137695	7107.329590
986.009766	7001.583984
984.881836	7059.860840
983.752930	7084.880859
982.624023	7027.936523
981.495117	7066.237305
980.366211	7168.725098
979.236328	6994.485352
978.106445	7061.535156
976.976563	7086.517090
975.846680	7018.584961
974.715820	7198.367676
973.585938	6975.670410
972.454102	7111.171387
971.323242	7047.711426
970.191406	7196.392578
969.060547	7177.121094
967.927734	7259.450195
966.795898	7220.299316
965.663086	7236.354492
964.530273	7521.663086
963.397461	7786.984863
962.264648	7807.312988
961.130859	7982.022949
959.997070	8022.143066
958.863281	8216.567383
957.729492	8042.816895
956.594727	7979.324707
955.459961	8138.376465
954.325195	7894.272949
953.189453	7894.715820
952.053711	7670.588867
950.917969	7594.039551
949.782227	7315.061035
948.646484	7280.427246
947.509766	7111.626465
946.373047	7189.211914
945.235352	7049.089355
944.098633	7018.939453
942.960938	7043.746094
941.823242	6894.958496
940.685547	7082.340332
939.546875	6962.160645
938.408203	7037.458008
937.269531	6912.950195
936.129883	7071.625977
934.991211	6977.885254
933.851563	7018.008301
932.711914	6968.187012
931.571289	7098.199219
930.431641	6995.764160
929.291016	7002.967285
928.149414	6911.555176
927.008789	7008.598145
925.867188	6952.270508
924.725586	6926.625977
923.583984	7043.303711
922.441406	6923.525879
921.299805	6819.119629
920.157227	6800.089355
919.013672	6938.562500
917.871094	6978.560547
916.727539	6845.809082
915.583984	6905.482422
914.439453	6748.765625
913.295898	6635.818359
912.151367	6765.400391
911.006836	6680.891113
909.861328	6718.695801
908.716797	6887.465332
907.571289	6829.174316
906.424805	6768.726563
905.279297	6653.766113
904.132813	6759.145020
902.986328	6659.501465
901.839844	6743.029785
900.692383	6780.748047
899.545898	6763.971191
898.398438	6714.521973
897.250000	6682.519531
896.102539	6909.670410
894.954102	6644.681641
893.805664	6715.017578
892.656250	6726.564941
891.507813	6790.322754
890.358398	6566.925293
889.208984	6735.075684
888.058594	6677.030273
886.908203	6651.616699
885.758789	6571.882813
884.607422	6585.612793
883.457031	6542.857422
882.305664	6554.414551
881.154297	6618.077148
880.002930	6579.682617
878.850586	6547.815918
877.698242	6628.793945
876.545898	6592.590820
875.393555	6463.143066
874.240234	6541.915039
873.086914	6559.950684
871.933594	6551.969238
870.780273	6420.478516
869.625977	6557.679688
868.471680	6460.899902
867.317383	6472.434570
866.162109	6603.034668
865.007813	6463.020020
863.852539	6515.659668
862.696289	6444.957520
861.541016	6616.540039
860.384766	6418.259277
859.228516	6414.647461
858.072266	6417.520996
856.915039	6472.257324
855.757813	6447.028809
854.600586	6458.531738
853.442383	6495.943359
852.285156	6503.110840
851.126953	6434.724121
849.968750	6273.569824
848.809570	6451.231445
847.650391	6607.241211
846.491211	6359.890625
845.332031	6548.191406
844.171875	6436.770996
843.012695	6504.278809
841.851563	6489.877930
840.691406	6339.769043
839.530273	6454.632813
838.369141	6367.042480
837.208008	6359.141602
836.046875	6439.485352
834.884766	6311.072754
833.722656	6365.574707
832.560547	6499.630371
831.397461	6270.226563
830.234375	6410.690918
829.071289	6409.236816
827.908203	6339.020508
826.744141	6468.630859
825.580078	6417.762207
824.416016	6366.916504
823.251953	6404.115234
822.086914	6299.634766
820.921875	6560.003906
819.756836	6412.626465
818.590820	6387.575684
817.425781	6540.523926
816.259766	6461.855957
815.092773	6393.940430
813.926758	6353.913574
812.759766	6425.313965
811.592773	6306.043457
810.424805	6360.289063
809.257813	6131.894043
808.089844	6233.245605
806.920898	6313.149414
805.752930	6264.643066
804.583984	6248.244141
803.415039	6253.238281
802.246094	6352.305664
801.076172	6391.474609
799.906250	6227.597656
798.736328	6238.999512
797.566406	6327.297363
796.395508	6163.545410
795.224609	6362.848633
794.053711	6406.228027
792.881836	6552.028809
791.710938	6469.454102
790.538086	6553.309570
789.366211	6564.612305
788.194336	6471.428223
787.021484	6574.409668
785.848633	6594.223633
784.674805	6494.702637
783.500977	6393.096191
782.327148	6357.560059
781.153320	6426.378418
779.979492	6410.009766
778.804688	6455.371094
777.629883	6432.618652
776.454102	6471.571289
775.279297	6319.082031
774.103516	6385.685059
772.927734	6418.242188
771.750977	6314.753906
770.575195	6260.187012
769.398438	6254.507813
768.220703	6344.410645
767.043945	6457.631348
765.866211	6413.694336
764.688477	6469.537109
763.510742	6455.325684
762.332031	6394.445801
761.153320	6409.952148
759.974609	6508.154785
758.794922	6538.468262
757.616211	6498.818848
756.436523	6573.621582
755.255859	6648.389648
754.076172	6839.623047
752.895508	6838.057617
751.714844	6942.353027
750.533203	7000.032227
749.352539	7210.054199
748.170898	7343.812012
746.988281	7593.848145
745.806641	8256.154297
744.624023	9078.843750
743.441406	9734.163086
742.258789	11046.430664
741.075195	12975.048828
739.891602	14961.929688
738.708008	17309.031250
737.523438	20252.582031
736.339844	22409.521484
735.155273	24297.443359
733.969727	25557.841797
732.785156	25387.441406
731.599609	24181.607422
730.414063	22301.603516
729.227539	19551.849609
728.041992	17142.667969
726.855469	14730.377930
725.667969	12729.972656
724.481445	11187.504883
723.293945	10247.946289
722.106445	9331.973633
720.918945	8875.230469
719.730469	8328.217773
718.541992	7869.809570
717.353516	7422.127441
716.164063	7372.060547
714.975586	7149.634277
713.786133	6912.597168
712.595703	6780.731445
711.406250	6619.514648
710.215820	6454.170898
709.025391	6486.284180
707.833984	6457.501953
706.642578	6302.802246
705.451172	6414.664063
704.259766	6257.946289
703.068359	6243.922852
701.875977	6424.917480
700.683594	6251.532715
699.490234	6369.562988
698.297852	6246.560547
697.104492	6362.441895
695.910156	6428.001465
694.716797	6432.803711
693.522461	6362.236816
692.328125	6490.541016
691.132813	6616.693359
689.938477	6661.195313
688.743164	6630.378906
687.547852	6536.842773
686.351563	6564.605957
685.155273	6540.102051
683.958984	6480.084473
682.762695	6430.540039
681.565430	6420.703613
680.368164	6392.076660
679.170898	6380.165039
677.973633	6372.432617
676.775391	6416.873047
675.577148	6363.236328
674.378906	6351.339844
673.179688	6416.606445
671.980469	6373.429688
670.781250	6309.428223
669.581055	6366.322266
668.381836	6598.197266
667.181641	6457.118164
665.980469	6484.782715
664.780273	6447.893066
663.579102	6508.850098
662.377930	6523.996582
661.175781	6611.954102
659.973633	6714.430664
658.771484	6714.960449
657.569336	6682.224121
656.367188	6786.690918
655.164063	6866.171387
653.960938	6879.129395
652.756836	6902.467285
651.552734	6979.787598
650.348633	7054.996094
649.144531	7065.820801
647.939453	6987.403809
646.735352	7077.080078
645.529297	7148.045410
644.324219	7173.353516
643.118164	7124.009277
641.912109	7228.079102
640.706055	7199.467773
639.499023	7233.025879
638.292969	7210.639648
637.084961	7188.263672
635.877930	7192.812988
634.669922	7367.099609
633.461914	7450.246094
632.253906	7376.107422
631.044922	7399.224121
629.836914	7689.111816
628.626953	7575.683105
627.417969	7712.428223
626.208008	7689.977539
624.998047	7830.764160
623.788086	7750.456543
622.577148	7591.707520
621.366211	7482.584473
620.155273	7332.227051
618.944336	7200.512207
617.732422	7246.301758
616.520508	6999.148926
615.308594	6923.284668
614.095703	6987.662109
612.882813	6687.143066
611.669922	6763.909668
610.457031	6412.069824
609.243164	6519.763184
608.029297	6497.658691
606.815430	6294.371582
605.600586	6315.558105
604.385742	6260.585938
603.170898	6306.459961
601.955078	6327.627441
600.740234	6348.784668
599.524414	6334.977051
598.307617	6140.276855
597.091797	6266.276367
595.875000	6215.511230
594.658203	6275.698242
593.440430	6317.373047
592.222656	6301.536133
591.004883	6267.230957
589.787109	6360.186035
588.568359	6229.444824
587.349609	6182.870605
586.130859	6298.339355
584.912109	6315.333496
583.692383	6336.418945
582.472656	6205.832520
581.251953	6470.765137
580.032227	6366.838379
578.811523	6508.726074
577.589844	6415.075684
576.369141	6620.346191
575.147461	6530.805664
573.925781	6429.029785
572.703125	6535.959961
571.481445	6648.976074
570.258789	6610.628906
569.035156	6705.175781
567.812500	6771.065430
566.588867	6738.845215
565.365234	6808.781250
564.140625	6895.023926
562.916992	6799.497070
561.692383	6697.890625
560.466797	6804.506348
559.242188	6751.916016
558.016602	6815.629395
556.791016	6758.980957
555.564453	6667.694824
554.337891	6729.343262
553.111328	6678.867188
551.884766	6695.656250
550.657227	6834.666504
549.429688	6674.218750
548.202148	6697.104492
546.974609	6709.800293
545.746094	6781.512695
544.517578	6798.251953
543.288086	6961.454590
542.058594	6994.414063
540.829102	7090.393066
539.599609	6885.456543
538.370117	7013.934082
537.139648	6924.931152
535.909180	7004.583496
534.677734	6958.274902
533.446289	6962.751465
532.214844	6685.044434
530.983398	6774.824707
529.750977	6724.552734
528.519531	6735.163574
527.286133	6540.921875
526.053711	6588.068359
524.820313	6541.939453
523.586914	6564.741699
522.353516	6672.638184
521.119141	6849.362793
519.884766	6835.620605
518.650391	6659.892090
517.415039	6587.490723
516.179688	6553.577637
514.944336	6444.811035
513.708984	6485.797852
