#Wave		#Intensity
2109.224609	6351.235352
2107.712891	6248.688965
2106.201172	6283.717285
2104.687500	6123.646484
2103.175781	6115.710938
2101.662109	6203.626465
2100.150391	6230.373535
2098.636719	6181.125000
2097.123047	6216.122559
2095.607422	6110.760742
2094.093750	6157.313477
2092.578125	6292.968262
2091.064453	6067.205078
2089.548828	6194.572266
2088.033203	6219.625977
2086.517578	6185.305664
2085.000000	6103.190430
2083.484375	6166.157715
2081.966797	6207.675293
2080.449219	6193.158203
2078.931641	6160.528320
2077.414063	6104.856445
2075.894531	6146.351074
2074.376953	6115.398438
2072.857422	6209.538574
2071.337891	6244.402832
2069.818359	6241.415039
2068.298828	6212.113281
2066.777344	6158.158691
2065.257813	6137.107422
2063.736328	6209.754395
2062.214844	6264.292969
2060.693359	6095.366699
2059.171875	6246.820313
2057.648438	6296.389648
2056.126953	6291.754883
2054.603516	6241.158691
2053.080078	6162.684082
2051.556641	6292.630371
2050.033203	6207.616211
2048.507813	6143.960449
2046.984375	6244.310547
2045.458984	6175.755859
2043.933594	6136.734375
2042.408203	6110.838867
2040.882813	6134.106445
2039.355469	6239.265625
2037.830078	6242.843262
2036.302734	6266.067383
2034.775391	6146.863770
2033.248047	6255.203613
2031.718750	6165.506348
2030.191406	6231.261230
2028.662109	6115.438477
2027.134766	6235.138672
2025.605469	6223.996582
2024.076172	6104.980469
2022.544922	6139.628418
2021.015625	6265.756348
2019.484375	6331.391113
2017.955078	6176.524414
2016.423828	6212.760254
2014.892578	6304.483398
2013.359375	6215.004883
2011.828125	6083.139160
2010.294922	6140.571777
2008.761719	6201.242188
2007.230469	6170.566895
2005.695313	6055.126953
2004.162109	6151.636230
2002.628906	6223.659668
2001.093750	6155.531250
1999.558594	6093.948242
1998.023438	6089.392578
1996.488281	6265.576660
1994.953125	6132.380859
1993.417969	6227.102051
1991.880859	6175.332031
1990.343750	6164.255859
1988.806641	6234.511719
1987.269531	6208.791992
1985.732422	6126.178711
1984.193359	6282.548340
1982.656250	6240.583008
1981.117188	6089.773926
1979.578125	6033.247070
1978.039063	6096.928711
1976.500000	6256.385742
1974.958984	6224.210449
1973.417969	6153.095215
1971.878906	6208.583496
1970.337891	6272.159668
1968.796875	6199.457031
1967.253906	6206.248535
1965.712891	6219.522461
1964.169922	6185.781250
1962.626953	6190.950684
1961.083984	6136.165039
1959.541016	6175.361816
1957.998047	6165.953125
1956.455078	6198.649414
1954.910156	6242.664551
1953.365234	6199.255859
1951.820313	6204.413574
1950.275391	6164.267090
1948.730469	6146.783691
1947.183594	6134.159668
1945.638672	6173.280762
1944.091797	6165.505371
1942.544922	6170.663086
1940.998047	6169.354492
1939.449219	6226.205566
1937.902344	6268.495117
1936.353516	6183.195313
1934.804688	6193.186523
1933.255859	6172.504395
1931.707031	6285.776855
1930.158203	6194.090820
1928.607422	6068.568359
1927.058594	6062.444336
1925.507813	6199.830078
1923.957031	6201.741211
1922.406250	6105.333984
1920.853516	6150.772461
1919.302734	6220.357422
1917.750000	6217.429688
1916.197266	6193.567871
1914.644531	6145.565430
1913.091797	6242.456543
1911.539063	6142.963867
1909.984375	6181.889648
1908.431641	6080.842773
1906.876953	6225.915527
1905.322266	6076.661621
1903.767578	6186.305176
1902.210938	6252.503906
1900.656250	5990.849609
1899.099609	6114.900879
1897.542969	6131.276855
1895.986328	6200.642578
1894.429688	6154.373535
1892.873047	6148.256348
1891.314453	6089.177734
1889.755859	6102.332031
1888.199219	6160.399414
1886.640625	6112.583008
1885.080078	6151.380859
1883.521484	6146.874023
1881.960938	6304.263184
1880.402344	6157.096191
1878.841797	6109.329590
1877.281250	6266.626465
1875.720703	6234.872070
1874.158203	6118.266602
1872.597656	6072.148926
1871.035156	6133.287109
1869.472656	6138.392090
1867.910156	6069.900391
1866.347656	6079.814453
1864.783203	6139.299316
1863.220703	6241.927734
1861.656250	6194.251953
1860.091797	6029.929199
1858.527344	6237.972656
1856.962891	6057.734375
1855.396484	6145.895996
1853.832031	6152.582031
1852.265625	6173.633301
1850.699219	6092.521484
1849.132813	6148.684082
1847.566406	6112.284668
1845.998047	6066.330078
1844.431641	6218.149902
1842.863281	6156.247070
1841.294922	6169.293945
1839.726563	6174.366211
1838.156250	6152.347656
1836.587891	6108.033691
1835.017578	6208.682129
1833.449219	6118.193848
1831.878906	6178.994629
1830.306641	6196.791016
1828.736328	6246.408691
1827.166016	6168.716309
1825.593750	6113.327637
1824.021484	6180.425293
1822.449219	6260.215332
1820.876953	6319.304199
1819.304688	6214.657227
1817.730469	6206.988281
1816.158203	6189.790039
1814.583984	6245.666504
1813.009766	6174.471680
1811.435547	6260.494141
1809.859375	6240.123047
1808.285156	6149.929199
1806.708984	6105.788086
1805.132813	6182.232910
1803.556641	6190.443848
1801.980469	6187.550781
1800.404297	6076.851563
1798.826172	6218.224121
1797.248047	6250.190430
1795.671875	6114.196777
1794.093750	6166.763672
1792.513672	6103.695801
1790.935547	6176.826172
1789.355469	6210.349121
1787.777344	6218.533691
1786.197266	6266.274414
1784.617188	6165.281250
1783.035156	6269.954590
1781.455078	6135.793457
1779.873047	6183.510254
1778.292969	6313.403809
1776.710938	6264.658691
1775.128906	6215.933594
1773.544922	6213.040527
1771.962891	6292.276855
1770.378906	6283.052246
1768.794922	6258.043945
1767.212891	6321.435547
1765.626953	6331.145996
1764.042969	6271.432617
1762.458984	6397.875977
1760.873047	6265.628418
1759.287109	6321.066406
1757.701172	6264.556641
1756.115234	6422.414063
1754.529297	6354.876465
1752.941406	6315.724121
1751.355469	6319.114258
1749.767578	6281.560059
1748.179688	6365.249023
1746.591797	6464.643066
1745.001953	6406.622070
1743.414063	6409.987793
1741.824219	6433.801270
1740.234375	6610.158691
1738.644531	6460.956055
1737.054688	6481.598633
1735.462891	6470.797363
1733.873047	6525.999023
1732.281250	6567.037598
1730.689453	6611.199707
1729.097656	6666.335449
1727.505859	6688.476074
1725.912109	6558.342773
1724.320313	6607.176270
1722.726563	6726.596191
1721.132813	6872.634277
1719.539063	6833.538086
1717.945313	6780.345215
1716.349609	6849.458496
1714.755859	6844.874023
1713.160156	6821.485840
1711.564453	6942.248047
1709.968750	6870.289551
1708.371094	6906.420898
1706.775391	7003.601074
1705.177734	7114.828125
1703.580078	6928.641113
1701.982422	7027.317871
1700.384766	7083.712891
1698.787109	6975.854004
1697.187500	7165.155273
1695.587891	7093.282715
1693.990234	7108.974121
1692.390625	7168.415527
1690.789063	7126.272949
1689.189453	7106.017578
1687.587891	7126.376465
1685.988281	7176.393066
1684.386719	7001.588379
1682.785156	7065.656738
1681.181641	7054.795898
1679.580078	7112.584473
1677.976563	7257.696289
1676.373047	7184.421875
1674.769531	7170.424805
1673.166016	7231.255859
1671.562500	7231.280273
1669.957031	7382.442871
1668.353516	7390.223145
1666.748047	7410.459473
1665.142578	7538.129883
1663.537109	7489.825195
1661.929688	7601.858398
1660.324219	7687.389160
1658.716797	7844.450684
1657.109375	7835.007324
1655.501953	8030.848633
1653.894531	8086.671875
1652.285156	8218.640625
1650.677734	8353.662109
1649.068359	8505.716797
1647.458984	8477.500000
1645.849609	8733.526367
1644.240234	8871.426758
1642.628906	8923.878906
1641.019531	9108.244141
1639.408203	9219.593750
1637.796875	9302.967773
1636.185547	9657.764648
1634.572266	9782.881836
1632.960938	9856.777344
1631.347656	10008.151367
1629.734375	10441.538086
1628.121094	10505.946289
1626.507813	10647.788086
1624.894531	11015.707031
1623.279297	11220.869141
1621.664063	11292.794922
1620.048828	11616.998047
1618.433594	11739.876953
1616.818359	11729.640625
1615.203125	12050.447266
1613.585938	12109.743164
1611.968750	12305.083008
1610.351563	12572.998047
1608.734375	12731.060547
1607.117188	12997.222656
1605.498047	13289.535156
1603.878906	13617.247070
1602.261719	13708.544922
1600.640625	13623.791992
1599.021484	13602.362305
1597.402344	13539.272461
1595.781250	13619.704102
1594.162109	13607.541992
1592.541016	13456.577148
1590.919922	13572.436523
1589.296875	13461.625000
1587.675781	13364.730469
1586.052734	13523.679688
1584.429688	13543.901367
1582.806641	13795.163086
1581.183594	13810.696289
1579.560547	13937.077148
1577.935547	14115.741211
1576.312500	14015.766602
1574.687500	14092.782227
1573.062500	13932.857422
1571.435547	14026.774414
1569.810547	14065.291992
1568.183594	13991.565430
1566.558594	13940.923828
1564.931641	14023.997070
1563.304688	13646.120117
1561.675781	13727.682617
1560.048828	13572.708008
1558.419922	13697.239258
1556.791016	13569.966797
1555.162109	13392.100586
1553.533203	13232.723633
1551.904297	13102.560547
1550.273438	13047.605469
1548.642578	12764.193359
1547.011719	12831.980469
1545.380859	12775.583008
1543.750000	12929.152344
1542.119141	12782.362305
1540.486328	12969.561523
1538.853516	12674.273438
1537.220703	12882.848633
1535.587891	12965.808594
1533.955078	13039.549805
1532.320313	13261.680664
1530.685547	13283.311523
1529.052734	13280.458984
1527.416016	13147.629883
1525.781250	12984.279297
1524.146484	12909.651367
1522.509766	12636.392578
1520.873047	12656.594727
1519.236328	12398.780273
1517.599609	12156.347656
1515.962891	11968.985352
1514.324219	11969.464844
1512.687500	11634.179688
1511.048828	11546.229492
1509.410156	11487.299805
1507.771484	11304.853516
1506.130859	11180.429688
1504.492188	10960.011719
1502.851563	10802.181641
1501.210938	10562.126953
1499.570313	10491.291992
1497.927734	10338.231445
1496.287109	10192.849609
1494.644531	10047.530273
1493.001953	10119.955078
1491.359375	10332.365234
1489.716797	10124.721680
1488.074219	10215.335938
1486.429688	10257.240234
1484.785156	10098.403320
1483.140625	10038.454102
1481.496094	9905.571289
1479.851563	9876.079102
1478.207031	9597.434570
1476.560547	9583.209961
1474.914063	9400.420898
1473.267578	9199.491211
1471.621094	9194.467773
1469.972656	9186.410156
1468.326172	9178.354492
1466.677734	9039.839844
1465.029297	9075.802734
1463.380859	9081.421875
1461.732422	8856.601563
1460.082031	8825.887695
1458.431641	8877.015625
1456.783203	8809.947266
1455.132813	8682.319336
1453.480469	8771.302734
1451.830078	8772.430664
1450.177734	8799.291992
1448.527344	8950.238281
1446.875000	8937.708008
1445.220703	8822.315430
1443.568359	8794.691406
1441.916016	8957.602539
1440.261719	8821.113281
1438.607422	8900.817383
1436.953125	9021.285156
1435.298828	8872.782227
1433.642578	8898.044922
1431.988281	8884.032227
1430.332031	8637.517578
1428.675781	8676.397461
1427.019531	8552.272461
1425.361328	8373.883789
1423.705078	8334.352539
1422.046875	8196.807617
1420.388672	8264.385742
1418.730469	8280.678711
1417.072266	8128.160645
1415.412109	8180.638672
1413.753906	8150.235352
1412.093750	8026.460449
1410.433594	8075.912598
1408.773438	8104.265137
1407.111328	8144.645996
1405.451172	8022.482422
1403.789063	8196.766602
1402.126953	8065.617676
1400.464844	8038.293945
1398.802734	8013.988281
1397.138672	8132.500000
1395.474609	8045.061035
1393.812500	8183.045898
1392.146484	8200.790039
1390.482422	8189.988770
1388.818359	8231.748047
1387.152344	8117.355469
1385.486328	8289.692383
1383.820313	8248.866211
1382.154297	8380.589844
1380.488281	8204.763672
1378.820313	8100.995605
1377.154297	8096.226074
1375.486328	8043.491211
1373.818359	8007.263184
1372.148438	7983.037109
1370.480469	7821.005859
1368.810547	7810.308594
1367.140625	7869.989746
1365.470703	7712.578125
1363.800781	7751.299805
1362.130859	7734.638672
1360.458984	7815.225586
1358.787109	7753.685059
1357.115234	7904.513672
1355.443359	7946.137207
1353.771484	7896.563965
1352.097656	7870.922363
1350.423828	7884.136230
1348.751953	7824.150879
1347.076172	7794.059570
1345.402344	7771.445801
1343.728516	7726.449707
1342.052734	7921.752441
1340.376953	7802.137207
1338.701172	7739.261230
1337.025391	7806.166504
1335.347656	7837.254883
1333.671875	7835.532227
1331.994141	7842.751953
1330.316406	7811.224609
1328.638672	7836.322266
1326.960938	7716.930176
1325.281250	7859.678223
1323.601563	7728.421875
1321.921875	7939.573242
1320.242188	7821.748535
1318.562500	7875.075195
1316.880859	7760.290039
1315.201172	7801.707520
1313.519531	7860.948730
1311.837891	7841.376953
1310.154297	8001.642578
1308.472656	7980.561035
1306.789063	8130.324707
1305.105469	8147.838379
1303.421875	8269.284180
1301.738281	8298.634766
1300.054688	8252.275391
1298.369141	8384.002930
1296.683594	8493.417969
1294.998047	8430.728516
1293.312500	8362.133789
1291.626953	8462.583008
1289.939453	8386.598633
1288.253906	8392.153320
1286.566406	8576.978516
1284.878906	8489.166016
1283.189453	8524.311523
1281.501953	8494.291992
1279.812500	8520.536133
1278.123047	8309.974609
1276.433594	8390.993164
1274.744141	8365.464844
1273.052734	8237.897461
1271.363281	8239.028320
1269.671875	8198.764648
1267.980469	8192.512695
1266.289063	8162.619141
1264.595703	8165.240234
1262.904297	8082.191895
1261.210938	8025.760742
1259.517578	8065.316406
1257.824219	7824.408691
1256.128906	8023.365234
1254.435547	7851.914551
1252.740234	7785.267578
1251.044922	7723.073242
1249.349609	7756.741211
1247.652344	7709.320313
1245.957031	7684.025391
1244.259766	7632.219727
1242.562500	7808.762695
1240.865234	7736.332520
1239.167969	7719.885254
1237.468750	7744.663574
1235.769531	7719.389648
1234.072266	7557.283203
1232.371094	7637.980469
1230.671875	7575.975586
1228.972656	7593.402344
1227.271484	7596.118652
1225.570313	7651.746094
1223.869141	7588.320801
1222.167969	7717.380371
1220.464844	7678.937012
1218.763672	7691.906738
1217.060547	7806.172852
1215.357422	7626.821777
1213.654297	7632.454590
1211.949219	7585.266602
1210.246094	7687.716309
1208.541016	7744.657227
1206.835938	7829.429688
1205.130859	7662.036133
1203.423828	7673.511230
1201.718750	7679.119629
1200.011719	7574.858887
1198.304688	7644.925293
1196.597656	7624.177734
1194.888672	7615.150391
1193.181641	7674.913086
1191.472656	7772.692383
1189.763672	7729.988281
1188.054688	7703.390625
1186.343750	7840.576172
1184.634766	7907.527344
1182.923828	8043.142090
1181.212891	8001.882324
1179.501953	8273.281250
1177.791016	8356.137695
1176.078125	8070.966309
1174.365234	8162.589844
1172.652344	8260.009766
1170.939453	8214.374023
1169.226563	8282.557617
1167.511719	7961.252441
1165.798828	8109.667480
1164.083984	8071.393066
1162.369141	8079.779785
1160.652344	8168.314941
1158.937500	8042.630859
1157.220703	7829.602051
1155.503906	7746.283203
1153.787109	7565.447754
1152.070313	7496.781250
1150.351563	7441.242676
1148.632813	7409.009277
1146.916016	7341.876465
1145.195313	7222.416016
1143.476563	7127.727051
1141.757813	6966.209473
1140.037109	6968.997070
1138.316406	6899.129395
1136.595703	6740.676270
1134.875000	6682.509277
1133.152344	6657.766113
1131.429688	6583.673828
1129.708984	6660.562012
1127.984375	6576.343750
1126.261719	6640.140625
1124.539063	6476.189453
1122.814453	6413.819336
1121.089844	6248.542969
1119.365234	6163.060059
1117.640625	6129.783691
1115.914063	6083.482422
1114.187500	5967.675293
1112.462891	5847.576172
1110.734375	5909.954102
1109.007813	5801.500488
1107.281250	5774.136230
1105.552734	5862.529297
1103.824219	5751.265625
1102.095703	5901.808105
1100.367188	5959.748047
1098.636719	5969.958984
1096.908203	5938.254395
1095.177734	5876.221191
1093.447266	5897.998535
1091.714844	5899.546875
1089.984375	5935.746582
1088.251953	5821.800781
1086.519531	5772.850586
1084.787109	5849.453125
1083.054688	5895.726563
1081.320313	5722.759766
1079.585938	5748.853516
1077.851563	5780.700684
1076.117188	5694.350586
1074.382813	5871.727051
1072.648438	5812.766113
1070.912109	5776.875000
1069.175781	5841.794922
1067.439453	5911.003418
1065.701172	5785.877930
1063.964844	5853.627441
1062.226563	5853.730957
1060.488281	5892.666992
1058.750000	5862.562500
1057.011719	5927.355469
1055.271484	5979.182129
1053.531250	5868.605957
1051.791016	5844.278809
1050.050781	5827.144043
1048.310547	5820.067871
1046.568359	5772.796387
1044.826172	5790.135254
1043.083984	5740.020996
1041.341797	5701.406250
1039.599609	5760.344238
1037.855469	5697.362793
1036.113281	5759.140625
1034.369141	5730.588379
1032.623047	5737.874023
1030.878906	5669.222168
1029.132813	5569.088867
1027.386719	5699.561035
1025.640625	5509.267090
1023.894531	5559.534180
1022.148438	5541.086426
1020.400391	5471.139648
1018.652344	5527.100586
1016.904297	5502.950684
1015.156250	5527.423340
1013.406250	5596.195801
1011.658203	5547.750488
1009.908203	5483.610352
1008.158203	5510.918945
1006.408203	5601.051758
1004.656250	5486.969238
1002.904297	5535.668945
1001.152344	5581.491211
999.400391	5534.549805
997.648438	5516.158691
995.896484	5372.274902
994.142578	5530.729492
992.388672	5465.309570
990.634766	5653.596680
988.878906	5561.105957
987.125000	5625.351563
985.369141	5671.053223
983.613281	5608.520996
981.857422	5628.580566
980.099609	5546.161133
978.343750	5654.442383
976.585938	5600.504395
974.828125	5509.613281
973.070313	5541.044922
971.310547	5637.852539
969.552734	5501.535156
967.792969	5630.986816
966.033203	5557.237305
964.273438	5580.097656
962.511719	5570.288574
960.750000	5593.134277
958.990234	5539.329102
957.226563	5616.088867
955.464844	5623.301270
953.703125	5674.476563
951.939453	5598.013184
950.175781	5660.509766
948.412109	5591.170410
946.648438	5645.136719
944.882813	5679.245117
943.117188	5600.033691
941.351563	5588.824707
939.585938	5550.722656
937.820313	5519.714844
936.052734	5601.919434
934.285156	5624.669922
932.517578	5616.293457
930.750000	5600.851074
928.982422	5528.868164
927.212891	5615.212402
925.443359	5599.778809
923.673828	5523.606445
921.904297	5571.756348
920.132813	5600.115234
918.361328	5494.348145
916.591797	5581.988281
914.818359	5376.089355
913.046875	5432.679199
911.275391	5376.411133
909.501953	5294.787598
907.728516	5411.973633
905.955078	5299.371582
904.179688	5391.137695
902.406250	5374.387207
900.630859	5495.668945
898.855469	5488.757324
897.080078	5343.886719
895.302734	5377.828125
893.525391	5363.911621
891.750000	5331.712402
889.970703	5389.541016
888.193359	5334.852051
886.416016	5343.448730
884.636719	5364.690430
882.857422	5287.561523
881.078125	5197.824707
879.296875	5292.117188
877.517578	5202.419922
875.736328	5244.724609
873.955078	5180.342773
872.173828	5090.732910
870.390625	5169.506348
868.609375	5145.858398
866.826172	5216.168457
865.042969	5163.080078
863.259766	5139.448730
861.474609	5099.013672
859.689453	5216.896484
857.904297	5215.676758
856.119141	5269.065918
854.333984	5129.242676
852.546875	5315.585449
850.761719	5403.893555
848.974609	5381.645020
847.185547	5380.384766
845.398438	5454.631348
843.609375	5472.924805
841.822266	5359.833984
840.031250	5386.523926
838.242188	5337.765625
836.453125	5445.451172
834.662109	5315.715332
832.871094	5246.066406
831.080078	5249.022949
829.289063	5243.605957
827.496094	5236.795898
825.703125	5196.516602
823.910156	5283.140137
822.117188	5150.863281
820.324219	5272.298340
818.529297	5195.819336
816.734375	5253.106445
814.939453	5112.602539
813.144531	5221.398926
811.347656	5075.399414
809.550781	4985.136719
807.755859	5078.579590
805.957031	4932.714844
804.160156	4934.336426
802.361328	4942.909180
800.564453	5000.129883
798.765625	4937.804688
796.964844	4951.926270
795.166016	4914.644531
793.365234	4909.321289
791.564453	4874.842773
789.763672	4829.275391
787.962891	4742.094727
786.160156	4765.952637
784.359375	4773.152832
782.556641	4760.933594
780.751953	4675.235840
778.949219	4682.451172
777.144531	4700.749023
775.339844	4710.725098
773.535156	4647.281250
771.730469	4776.361328
769.925781	4743.390625
768.119141	4840.549805
766.312500	4721.778320
764.505859	4658.404785
762.697266	4715.400391
760.890625	4686.629395
759.082031	4815.484375
757.273438	4846.138672
755.464844	4885.069824
753.654297	4845.231445
751.845703	4710.104492
750.035156	4768.372070
748.224609	4732.729980
746.412109	4720.568848
744.601563	4720.833008
742.789063	4755.587402
740.976563	4681.359863
739.164063	4700.937500
737.349609	4743.942383
735.537109	4742.820313
733.722656	4697.602051
731.908203	4605.563965
730.091797	4669.209473
728.277344	4640.563477
726.460938	4711.053223
724.644531	4751.229004
722.828125	4634.516113
721.009766	4548.124023
719.193359	4666.706055
717.375000	4574.845703
715.556641	4531.145020
713.736328	4618.033691
711.917969	4564.724121
710.097656	4628.208984
708.277344	4535.091309
706.457031	4560.104980
704.636719	4579.615723
702.814453	4563.432617
700.992188	4551.373047
699.169922	4616.140137
697.347656	4506.697754
695.523438	4408.275879
693.699219	4559.392090
691.875000	4491.155273
690.050781	4584.631836
688.226563	4667.104492
686.400391	4556.433594
684.574219	4589.582031
682.748047	4658.304688
680.921875	4659.935547
679.095703	4710.821289
677.267578	4793.144043
675.439453	4807.048828
673.611328	4800.437012
671.781250	4789.727539
669.953125	4780.389648
668.123047	4862.596191
666.292969	4850.512207
664.460938	4996.847168
662.630859	4982.005371
660.798828	5069.544434
658.966797	5031.492676
657.134766	5098.512207
655.302734	5221.423828
653.468750	5293.820313
651.634766	5250.296387
649.800781	5411.248047
647.966797	5418.135742
646.130859	5524.474609
644.294922	5351.539551
642.458984	5429.245605
640.623047	5373.496094
638.787109	5391.271484
636.949219	5300.177246
635.111328	5221.369141
633.273438	5194.283203
631.435547	5066.584961
629.595703	4968.854980
627.757813	4956.797852
625.917969	4913.492676
624.076172	4910.963379
622.236328	4795.706055
620.394531	4709.018066
618.552734	4739.118164
616.710938	4744.773926
614.869141	4613.382324
613.025391	4659.761230
611.183594	4577.275879
609.339844	4646.690918
607.494141	4538.491211
605.650391	4588.908203
603.804688	4468.579102
601.958984	4502.732422
600.113281	4484.052246
598.267578	4449.132324
596.419922	4420.997559
594.572266	4442.948730
592.724609	4414.828125
590.876953	4423.242676
589.027344	4428.947754
587.179688	4371.104980
585.330078	4356.543945
583.480469	4260.906738
581.628906	4212.601563
579.779297	4253.468262
577.927734	4324.023926
576.076172	4186.631836
574.222656	4242.321289
572.371094	4231.861328
570.517578	4170.139648
568.664063	4183.979980
566.810547	4249.055176
564.955078	4133.446289
563.101563	4187.719238
561.246094	4201.540527
559.390625	4125.093262
557.533203	4041.948242
555.677734	4109.655273
553.820313	4044.053955
551.962891	3987.904785
550.105469	4058.266846
548.246094	4185.095703
546.386719	4194.854004
544.527344	4148.133301
542.667969	4233.175781
540.808594	4197.219727
538.947266	4177.404297
537.085938	4105.208496
535.224609	4120.342285
533.363281	4135.468750
531.500000	4090.180908
529.638672	3987.206787
527.775391	4013.086914
525.910156	4100.658691
524.046875	4267.312012
522.181641	4480.811523
520.316406	4692.868164
518.451172	4634.119629
516.585938	4355.672852
514.718750	4188.535156
512.851563	4058.973633
510.984375	4041.935547
509.117188	4012.858887
507.250000	3946.326660
505.380859	3941.367920
503.511719	3905.647705
501.642578	4025.062988
499.771484	4002.708496
497.902344	3930.910400
496.031250	4043.551758
494.160156	3974.449707
492.287109	4017.573486
490.416016	4047.323242
488.542969	4038.343750
486.669922	4030.702881
484.796875	3914.983154
482.921875	3930.053467
481.046875	3937.114258
479.171875	3920.170166
477.296875	3907.233154
475.421875	3976.932861
473.544922	3846.733887
471.667969	3872.454346
469.791016	3879.517334
467.914063	3885.245117
466.035156	3928.242188
464.156250	3949.925049
462.277344	4000.868652
460.398438	3858.908691
458.519531	3826.066650
456.638672	3880.991455
454.757813	3918.609375
452.876953	3977.471924
450.994141	3977.847168
449.113281	3987.520020
447.230469	3925.477783
445.347656	3928.520020
443.462891	3914.305176
441.580078	4006.258057
439.695313	3912.428955
437.810547	3977.810303
435.925781	3962.270020
434.039063	3986.509521
432.152344	4012.062500
430.267578	3930.269531
428.378906	3995.566895
426.492188	3904.545166
424.603516	3867.857178
422.714844	3878.844727
420.826172	3872.620850
418.937500	3870.369629
417.046875	3878.702148
415.158203	3838.095459
413.265625	3883.454590
411.375000	3928.791504
409.484375	3908.025635
407.591797	3876.699219
405.699219	3899.547852
403.806641	3832.579834
401.912109	3897.678955
400.019531	3979.907227
