#Wave	#Intensity
2109.007813	2098.82373
2107.496094	2115.363037
2105.984375	2075.219971
2104.470703	2121.061035
2102.958984	2138.783936
2101.445313	2105.271729
2099.933594	2185.771484
2098.419922	2101.058838
2096.90625	2158.404785
2095.390625	2152.985596
2093.876953	2053.47876
2092.361328	2090.993652
2090.845703	2059.192627
2089.332031	2052.150146
2087.814453	2130.873291
2086.298828	2095.786377
2084.783203	2128.306152
2083.265625	2056.974365
2081.748047	2109.262939
2080.230469	2087.391113
2078.712891	2017.761353
2077.195313	2104.607178
2075.677734	2123.911621
2074.158203	2057.611328
2072.638672	2070.334473
2071.119141	2102.796875
2069.599609	2095.764893
2068.080078	2134.786621
2066.560547	2047.178833
2065.039063	2092.77002
2063.517578	2156.421387
2061.996094	2101.730713
2060.474609	2134.137695
2058.953125	2122.181641
2057.429688	2139.790527
2055.908203	2124.554688
2054.384766	2114.25
2052.861328	2163.031006
2051.337891	2136.314453
2049.814453	2089.924072
2048.289063	2161.640137
2046.765625	2100.506592
2045.240234	2145.959473
2043.714844	2061.908936
2042.189453	2041.803101
2040.664063	2072.494385
2039.136719	2096.620361
2037.609375	2076.52002
2036.083984	2121.919678
2034.556641	2119.828613
2033.029297	2062.094971
2031.5	2078.016113
2029.972656	2095.56665
2028.443359	2049.32373
2026.914063	2145.361572
2025.386719	2030.4646
2023.855469	2123.196289
2022.326172	2093.328369
2020.796875	2050.402832
2019.265625	2103.868408
2017.734375	2136.081055
2016.203125	2099.704834
2014.671875	2073.138184
2013.140625	2074.327881
2011.607422	2085.307129
2010.076172	2094.650391
2008.542969	2094.203613
2007.009766	2066.035889
2005.476563	2135.698486
2003.943359	2203.701416
2002.408203	2152.713867
2000.875	2065.904297
1999.339844	2063.834961
1997.804688	2175.766602
1996.269531	2053.186523
1994.732422	2080.423096
1993.197266	2063.704834
1991.660156	2082.791504
1990.123047	2031.916382
1988.585938	2036.363281
1987.048828	2087.966553
1985.511719	2107.031738
1983.972656	1971.671021
1982.435547	2046.00647
1980.896484	2035.822754
1979.357422	2063.004883
1977.818359	2080.430908
1976.279297	2034.524292
1974.738281	2079.546387
1973.197266	2030.413452
1971.658203	2132.211182
1970.117188	2073.35376
1968.576172	2128.061279
1967.033203	2065.986328
1965.492188	2141.749023
1963.949219	2047.278198
1962.40625	2041.981567
1960.863281	2065.852051
1959.320313	2075.133057
1957.777344	2095.747314
1956.232422	2121.210449
1954.689453	2044.671753
1953.144531	2084.701904
1951.599609	2103.677979
1950.054688	2096.760254
1948.507813	2120.578369
1946.962891	2076.4646
1945.416016	2053.388428
1943.869141	2146.709961
1942.322266	2081.608398
1940.775391	2055.314209
1939.228516	2069.417725
1937.679688	2044.752075
1936.132813	2112.139648
1934.583984	2068.102051
1933.035156	2085.418945
1931.486328	2055.929443
1929.935547	2066.787842
1928.386719	2096.998291
1926.835938	2141.710693
1925.285156	2059.024902
1923.734375	2029.572021
1922.183594	2153.243896
1920.632813	2104.446777
1919.080078	2108.834229
1917.527344	2074.563477
1915.976563	2048.358643
1914.423828	2025.38501
1912.869141	2082.904053
1911.316406	2021.309082
1909.761719	2040.189087
1908.208984	2020.453613
1906.654297	2048.975586
1905.099609	2066.229492
1903.544922	2048.108643
1901.988281	2058.92627
1900.433594	2100.270996
1898.876953	2024.31665
1897.320313	1999.794556
1895.763672	2042.731445
1894.207031	2006.976685
1892.648438	2061.130371
1891.091797	2028.596558
1889.533203	2063.468018
1887.974609	2087.094971
1886.416016	2081.842041
1884.857422	2050.93457
1883.298828	2129.058105
1881.738281	1992.36438
1880.177734	2073.672119
1878.617188	2079.642578
1877.056641	2130.462402
1875.496094	2067.552979
1873.935547	2038.294922
1872.373047	2068.280029
1870.810547	2019.828125
1869.248047	2022.601563
1867.685547	2121.363037
1866.123047	2034.542725
1864.560547	1992.535156
1862.996094	2062.46167
1861.431641	1964.519287
1859.867188	2018.440796
1858.302734	2113.88208
1856.738281	2092.668457
1855.171875	2119.377441
1853.607422	2082.203857
1852.041016	2045.045776
1850.474609	2079.728271
1848.908203	2068.118408
1847.341797	2021.414063
1845.773438	2032.152832
1844.207031	2028.534058
1842.638672	2069.560791
1841.070313	2040.430054
1839.501953	2110.124023
1837.931641	2065.062988
1836.363281	2039.137573
1834.792969	2083.303711
1833.222656	2055.792969
1831.652344	2031.477661
1830.082031	2117.002197
1828.511719	2046.533813
1826.941406	1955.411255
1825.369141	1969.314819
1823.796875	2070.683838
1822.224609	2006.644409
1820.652344	2077.757813
1819.078125	2061.425293
1817.505859	2080.058594
1815.931641	2081.208008
1814.357422	2052.177979
1812.783203	2075.565186
1811.208984	2087.828369
1809.634766	2058.814941
1808.058594	2055.206055
1806.484375	2037.318481
1804.908203	2074.960938
1803.332031	2044.388184
1801.753906	2007.485596
1800.177734	1959.500977
1798.601563	2012.977905
1797.023438	2072.770996
1795.445313	2001.037231
1793.867188	2081.399658
1792.289063	2054.037354
1790.708984	2040.936768
1789.130859	1999.347412
1787.550781	1997.342407
1785.970703	2044.390991
1784.390625	1993.334717
1782.810547	2040.364014
1781.228516	2058.90918
1779.646484	2033.178101
1778.066406	2028.006592
1776.484375	2037.060303
1774.902344	2065.070068
1773.318359	2088.328857
1771.736328	2053.142334
1770.152344	2085.867676
1768.568359	2066.48291
1766.984375	2088.143066
1765.400391	2067.187744
1763.816406	2049.396484
1762.230469	2104.170166
1760.646484	2054.838379
1759.060547	2068.594238
1757.474609	2047.664673
1755.888672	2061.416016
1754.300781	2086.190918
1752.714844	1969.174927
1751.126953	2064.833984
1749.539063	1982.514526
1747.951172	2032.474365
1746.363281	2090.282959
1744.775391	2096.135742
1743.185547	2051.638916
1741.595703	2115.69873
1740.007813	2085.370361
1738.416016	2070.77832
1736.826172	2068.768311
1735.236328	2055.757324
1733.644531	2110.319824
1732.052734	2139.722656
1730.462891	2132.987305
1728.869141	2063.440674
1727.277344	2053.583984
1725.685547	2148.900391
1724.091797	2090.379639
1722.498047	2124.455811
1720.904297	2136.555908
1719.310547	2095.326416
1717.716797	2021.185669
1716.121094	2091.304199
1714.527344	2056.379639
1712.931641	2074.748535
1711.335938	2039.842041
1709.740234	2075.436523
1708.142578	2100.053711
1706.546875	2079.254883
1704.949219	2141.429443
1703.351563	2065.854004
1701.753906	2101.404785
1700.15625	2121.296631
1698.558594	2053.593262
1696.958984	2118.834229
1695.359375	2132.455811
1693.759766	2081.986328
1692.160156	2090.921387
1690.560547	2101.415039
1688.960938	2125.962646
1687.359375	2089.592285
1685.757813	2112.570313
1684.15625	2132.41626
1682.554688	2119.478271
1680.953125	2083.139648
1679.349609	2106.098877
1677.748047	2149.324951
1676.144531	2161.344482
1674.541016	2179.594971
1672.9375	2130.811279
1671.332031	2180.22876
1669.728516	2123.675049
1668.123047	2135.686279
1666.517578	2136.790527
1664.912109	2207.963623
1663.306641	2176.359619
1661.701172	2219.477783
1660.09375	2237.679688
1658.486328	2263.652832
1656.878906	2309.835449
1655.271484	2320.230713
1653.664063	2241.998779
1652.056641	2358.106445
1650.447266	2351.388916
1648.837891	2285.630127
1647.228516	2306.892822
1645.619141	2325.040283
1644.009766	2402.186279
1642.398438	2342.681641
1640.789063	2446.177246
1639.177734	2402.206299
1637.566406	2345.842285
1635.955078	2363.957031
1634.341797	2468.9104
1632.730469	2455.981201
1631.117188	2452.358398
1629.503906	2442.537598
1627.890625	2424.973389
1626.277344	2501.916016
1624.662109	2510.676514
1623.048828	2465.235107
1621.433594	2531.282227
1619.818359	2632.901611
1618.203125	2581.272705
1616.587891	2555.967773
1614.970703	2603.376221
1613.353516	2545.599609
1611.738281	2633.191162
1610.121094	2644.99707
1608.501953	2687.70874
1606.884766	2750.489746
1605.267578	2751.448486
1603.648438	2709.158691
1602.029297	2730.200195
1600.410156	2757.408203
1598.791016	2739.84082
1597.169922	2780.923828
1595.550781	2747.929443
1593.929688	2844.525879
1592.308594	2765.263672
1590.6875	2769.299316
1589.064453	2662.337891
1587.443359	2684.888672
1585.820313	2762.903076
1584.197266	2725.338379
1582.574219	2710.893799
1580.951172	2725.714111
1579.328125	2674.324219
1577.703125	2716.853027
1576.080078	2674.720459
1574.455078	2651.069092
1572.830078	2639.734131
1571.203125	2669.929443
1569.578125	2635.530029
1567.951172	2702.608643
1566.324219	2612.88501
1564.697266	2593.885986
1563.070313	2614.8396
1561.443359	2609.671875
1559.816406	2586.078369
1558.1875	2577.8479
1556.558594	2604.92627
1554.929688	2602.83374
1553.300781	2605.344971
1551.669922	2623.195313
1550.041016	2576.622314
1548.410156	2585.270264
1546.779297	2503.464844
1545.148438	2507.526367
1543.517578	2568.284424
1541.884766	2486.534424
1540.251953	2464.556885
1538.621094	2444.120117
1536.988281	2491.059082
1535.353516	2476.747803
1533.720703	2418.060547
1532.085938	2419.071533
1530.453125	2406.314209
1528.818359	2466.974854
1527.183594	2490.910645
1525.546875	2427.696045
1523.912109	2421.060547
1522.275391	2431.237305
1520.640625	2461.270752
1519.003906	2556.971924
1517.365234	2525.879395
1515.728516	2464.26416
1514.091797	2414.886963
1512.453125	2486.09668
1510.814453	2477.932617
1509.175781	2492.654541
1507.537109	2481.441895
1505.896484	2448.886475
1504.257813	2433.114014
1502.617188	2456.977051
1500.976563	2435.114014
1499.335938	2384.313477
1497.693359	2409.694092
1496.052734	2294.959961
1494.410156	2347.75415
1492.767578	2338.11499
1491.125	2351.307861
1489.482422	2305.154297
1487.837891	2275.753662
1486.195313	2290.471924
1484.550781	2256.525146
1482.90625	2414.143311
1481.261719	2293.549316
1479.617188	2340.161377
1477.970703	2432.330811
1476.324219	2459.14624
1474.677734	2492.024414
1473.03125	2523.369873
1471.384766	2542.557861
1469.738281	2516.208984
1468.089844	2577.874023
1466.441406	2606.138916
1464.792969	2506.994141
1463.144531	2630.789063
1461.496094	2493.781982
1459.845703	2519.008545
1458.197266	2512.4021
1456.546875	2460.348633
1454.896484	2424.97876
1453.244141	2453.226074
1451.59375	2355.79834
1449.941406	2325.014404
1448.291016	2354.777588
1446.638672	2367.884766
1444.984375	2291.736572
1443.332031	2324.511963
1441.679688	2274.110596
1440.025391	2323.503906
1438.371094	2310.908936
1436.716797	2254.498291
1435.0625	2282.713135
1433.40625	2252.009521
1431.75	2272.661865
1430.095703	2148.369141
1428.439453	2173.562744
1426.78125	2189.69043
1425.125	2136.408203
1423.466797	2164.604248
1421.810547	2146.036377
1420.152344	2121.445313
1418.494141	2226.505615
1416.833984	2140.115479
1415.175781	2157.731445
1413.515625	2273.26001
1411.855469	2244.148682
1410.195313	2285.822998
1408.535156	2283.819824
1406.875	2299.87915
1405.212891	2418.259766
1403.550781	2443.30957
1401.888672	2510.465088
1400.226563	2558.041016
1398.564453	2530.419922
1396.900391	2561.435303
1395.238281	2518.796631
1393.574219	2452.135742
1391.910156	2498.169189
1390.244141	2374.469971
1388.580078	2342.419189
1386.914063	2355.418701
1385.248047	2333.891846
1383.582031	2366.394775
1381.916016	2370.378418
1380.25	2395.359131
1378.582031	2342.350098
1376.916016	2329.844238
1375.248047	2348.820801
1373.578125	2313.839355
1371.910156	2397.236572
1370.242188	2363.757324
1368.572266	2424.642334
1366.902344	2391.171387
1365.232422	2414.599365
1363.5625	2373.661377
1361.890625	2368.652588
1360.220703	2372.621826
1358.548828	2367.61499
1356.876953	2420.927734
1355.205078	2372.557129
1353.53125	2310.755615
1351.859375	2374.505371
1350.185547	2391.912598
1348.511719	2573.617432
1346.837891	2674.60083
1345.164063	2706.860352
1343.488281	2946.59082
1341.8125	3056.379395
1340.138672	3192.976318
1338.460938	3356.363525
1336.785156	3454.057861
1335.109375	3563.637207
1333.431641	3598.631348
1331.753906	3687.264404
1330.076172	3670.0625
1328.398438	3743.742676
1326.720703	3742.918945
1325.041016	3514.263672
1323.361328	3552.197998
1321.681641	3451.69043
1320.001953	3507.478516
1318.322266	3375.781006
1316.640625	3189.105225
1314.960938	3099.174561
1313.279297	2995.902344
1311.597656	2956.593506
1309.914063	2841.508301
1308.232422	2814.136719
1306.548828	2630.800781
1304.865234	2582.695068
1303.181641	2539.064697
1301.498047	2440.526855
1299.814453	2374.684082
1298.128906	2403.836426
1296.443359	2343.964355
1294.757813	2346.412842
1293.072266	2268.785156
1291.386719	2274.213623
1289.699219	2171.438232
1288.011719	2188.740479
1286.324219	2112.697021
1284.636719	2107.785889
1282.949219	2202.09668
1281.259766	2180.881348
1279.572266	2143.39209
1277.882813	2147.357178
1276.193359	2179.432373
1274.501953	2137.530029
1272.8125	2123.74585
1271.121094	2053.780762
1269.429688	2130.195557
1267.738281	2097.208252
1266.046875	2089.354736
1264.353516	2096.277588
1262.662109	2070.703857
1260.96875	2037.758179
1259.275391	2088.976563
1257.582031	2101.796387
1255.886719	2114.610107
1254.193359	2115.615723
1252.498047	2118.095459
1250.802734	2164.813965
1249.107422	2168.755371
1247.410156	2185.961182
1245.714844	2184.001221
1244.017578	2156.994629
1242.320313	2199.232422
1240.623047	2184.015869
1238.925781	2108.438477
1237.226563	2068.223633
1235.527344	2126.631348
1233.828125	2098.201172
1232.128906	2030.064575
1230.429688	2034.02417
1228.728516	2011.514526
1227.029297	2068.398926
1225.328125	2013.556641
1223.626953	1951.391479
1221.923828	1971.523193
1220.222656	1954.926636
1218.519531	1942.742554
1216.816406	2006.905396
1215.113281	1987.375854
1213.410156	1983.996826
1211.707031	1935.138184
1210.001953	1961.107788
1208.296875	2001.730347
1206.591797	1967.561401
1204.886719	1931.94165
1203.179688	1891.941162
1201.474609	1875.400879
1199.767578	1886.699585
1198.060547	1895.064087
1196.353516	1860.963623
1194.644531	1864.93811
1192.9375	1852.812012
1191.228516	1883.123657
1189.519531	1870.998535
1187.810547	1886.666748
1186.099609	1878.932495
1184.390625	1882.896484
1182.679688	1924.858887
1180.96875	1893.741089
1179.257813	1831.958374
1177.544922	1819.862427
1175.833984	1806.311523
1174.121094	1782.547119
1172.408203	1885.776611
1170.695313	1840.115845
1168.982422	1810.523682
1167.267578	1859.708618
1165.552734	1748.462036
1163.837891	1835.5448
1162.123047	1867.199097
1160.408203	1866.778809
1158.691406	1861.987549
1156.976563	1809.129639
1155.259766	1823.285034
1153.541016	1817.050293
1151.824219	1809.362549
1150.107422	1833.694946
1148.388672	1844.921265
1146.669922	1789.228271
1144.951172	1826.637085
1143.230469	1833.494873
1141.511719	1854.886108
1139.791016	1821.040405
1138.070313	1822.082275
1136.349609	1785.353516
1134.628906	1773.331177
1132.90625	1841.175903
1131.185547	1849.469971
1129.462891	1786.6427
1127.740234	1831.221191
1126.015625	1781.482544
1124.292969	1765.125122
1122.568359	1825.628296
1120.84375	1791.871216
1119.119141	1794.364258
1117.394531	1792.508911
1115.667969	1842.809082
1113.941406	1807.629395
1112.214844	1799.97937
1110.488281	1793.780273
1108.761719	1757.187622
1107.033203	1805.990845
1105.306641	1767.964844
1103.578125	1850.011475
1101.849609	1749.809204
1100.119141	1781.219482
1098.390625	1793.824219
1096.660156	1737.056519
1094.929688	1748.220337
1093.199219	1782.490723
1091.46875	1748.870117
1089.736328	1709.489258
1088.003906	1661.46521
1086.273438	1689.950684
1084.539063	1703.994751
1082.806641	1739.6698
1081.074219	1678.702148
1079.339844	1715.80835
1077.605469	1747.131226
1075.871094	1723.674194
1074.134766	1697.345947
1072.400391	1673.910522
1070.664063	1735.458252
1068.927734	1699.065552
1067.191406	1622.381592
1065.455078	1645.039185
1063.716797	1707.975708
1061.978516	1673.060181
1060.240234	1679.869629
1058.501953	1696.741211
1056.763672	1736.606201
1055.023438	1747.707764
1053.283203	1656.78186
1051.542969	1702.374634
1049.802734	1706.294434
1048.0625	1714.520142
1046.320313	1712.692505
1044.578125	1718.041992
1042.835938	1743.478394
1041.09375	1753.121948
1039.351563	1837.344727
1037.607422	1736.545776
1035.863281	1767.688477
1034.119141	1718.550781
1032.375	1784.074829
1030.628906	1776.502808
1028.884766	1796.148438
1027.138672	1808.624756
1025.392578	1792.46167
1023.646484	1757.698242
1021.898438	1773.036377
1020.152344	1735.431641
1018.404297	1792.248047
1016.65625	1780.396362
1014.90625	1754.25293
1013.158203	1715.256836
1011.408203	1783.457397
1009.658203	1801.621216
1007.908203	1738.357788
1006.158203	1747.954712
1004.40625	1734.703369
1002.65625	1745.723755
1000.904297	1742.46814
999.150391	1702.118164
997.398438	1768.768677
995.646484	1717.022095
993.892578	1720.904175
992.138672	1696.275513
990.384766	1711.561157
988.628906	1715.441284
986.875	1772.024292
985.119141	1733.164551
983.363281	1732.765137
981.607422	1685.391113
979.849609	1770.391113
978.09375	1769.982788
976.335938	1745.392212
974.578125	1740.723022
972.820313	1696.244507
971.060547	1747.0271
969.300781	1749.466064
967.542969	1749.062134
965.78125	1814.001953
964.021484	1786.599243
962.261719	1834.461792
960.5	1889.399536
958.738281	1888.962769
956.976563	1986.428589
955.214844	1849.788452
953.451172	1945.799561
951.6875	1850.350586
949.923828	1805.977783
948.160156	1799.890869
946.396484	1724.37793
944.630859	1763.642944
942.865234	1758.985718
941.099609	1677.870483
939.333984	1677.481689
937.568359	1644.541748
935.800781	1661.139771
934.033203	1638.12085
932.265625	1600.969604
930.498047	1691.091431
928.730469	1692.112671
926.960938	1666.28064
925.191406	1607.962036
923.421875	1593.462402
921.652344	1624.16333
919.880859	1705.681396
918.109375	1667.17041
916.337891	1627.265747
914.566406	1643.81958
912.794922	1650.490967
911.021484	1634.593384
909.248047	1625.753174
907.474609	1625.375122
905.701172	1602.447144
903.927734	1611.937622
902.152344	1604.518921
900.376953	1639.35498
898.601563	1602.363892
896.826172	1678.007935
895.050781	1648.061768
893.273438	1608.279907
891.496094	1644.480469
889.71875	1653.942139
887.939453	1632.465332
886.162109	1601.158081
884.382813	1603.595703
882.603516	1613.057373
880.824219	1570.537842
879.044922	1587.02478
877.263672	1579.633789
875.482422	1584.880371
873.701172	1569.072266
871.919922	1563.093262
870.138672	1593.590088
868.355469	1559.558228
866.572266	1545.172363
864.789063	1539.203979
863.005859	1548.654785
861.220703	1565.106812
859.435547	1531.120605
857.650391	1522.359497
855.865234	1571.01001
854.080078	1513.248169
852.292969	1550.681519
850.505859	1498.547974
848.71875	1530.37146
846.931641	1553.788452
845.144531	1522.663818
843.355469	1550.265015
841.566406	1541.516479
839.777344	1532.771973
837.988281	1487.711548
836.197266	1555.795532
834.408203	1512.146851
832.617188	1542.502808
830.824219	1550.514648
829.033203	1492.944702
827.240234	1519.098511
825.449219	1536.872192
823.65625	1498.865601
821.861328	1497.119751
820.068359	1488.406494
818.273438	1499.203491
816.478516	1494.672485
814.683594	1484.572876
812.888672	1488.401123
811.091797	1488.051392
809.296875	1558.677124
807.5	1504.048218
805.701172	1505.085571
803.904297	1542.280518
802.105469	1476.570557
800.308594	1487.343506
798.509766	1482.824585
796.708984	1429.678955
794.910156	1473.79248
793.109375	1487.332886
791.308594	1528.634888
789.507813	1508.841919
787.707031	1533.466187
785.904297	1495.644531
784.101563	1480.034058
782.298828	1478.298584
780.496094	1518.157227
778.693359	1491.463135
776.888672	1511.898438
775.083984	1499.072876
773.279297	1459.935547
771.474609	1501.135498
769.667969	1453.708984
767.861328	1497.659058
766.054688	1533.2854
764.248047	1460.981323
762.441406	1463.402832
760.632813	1485.182983
758.824219	1530.455688
757.015625	1550.827271
755.207031	1474.458008
753.398438	1511.411499
751.587891	1487.57373
749.777344	1556.266968
747.966797	1597.316162
746.154297	1590.037476
744.34375	1621.399658
742.53125	1785.187256
740.71875	1987.516724
738.90625	2279.381104
737.091797	2893.701904
735.277344	3516.001465
733.464844	3891.352051
731.648438	4032.327393
729.833984	3755.911865
728.019531	3252.425537
726.203125	2776.709961
724.386719	2353.52002
722.568359	2048.866455
720.751953	1894.30542
718.933594	1783.828735
717.115234	1654.153931
715.296875	1649.637817
713.478516	1594.272095
711.658203	1521.069702
709.839844	1471.255249
708.019531	1495.627563
706.197266	1455.453857
704.376953	1477.072632
702.554688	1479.467163
700.734375	1488.720947
698.910156	1552.84082
697.087891	1416.699585
695.265625	1483.548218
693.441406	1509.241089
691.617188	1473.250732
689.792969	1530.446899
687.966797	1484.879761
686.140625	1503.699951
684.316406	1481.436279
682.490234	1419.486572
680.662109	1447.888184
678.835938	1437.966919
677.007813	1396.589355
675.179688	1483.780029
673.351563	1435.574829
671.521484	1457.103882
669.693359	1473.15625
667.863281	1486.468384
666.033203	1482.017212
664.201172	1451.621826
662.371094	1462.19873
660.539063	1520.543335
658.707031	1454.680054
656.875	1478.891235
655.041016	1519.458374
653.208984	1502.733032
651.375	1510.555298
649.541016	1526.551636
647.705078	1494.846924
645.871094	1519.013184
644.035156	1525.46167
642.199219	1519.651611
640.363281	1527.457886
638.525391	1523.010986
636.689453	1504.95874
634.851563	1492.356689
633.013672	1490.640991
631.173828	1480.767578
629.335938	1537.51062
627.496094	1543.939697
625.65625	1508.243408
623.816406	1535.052979
621.974609	1549.626465
620.132813	1561.477295
618.292969	1531.240356
616.449219	1482.017456
614.607422	1459.95459
612.763672	1481.310547
610.921875	1476.888672
609.078125	1452.130737
607.232422	1409.762573
605.388672	1439.240967
603.542969	1402.315308
601.697266	1397.916992
599.851563	1419.251221
598.005859	1391.833984
596.158203	1411.805786
594.310547	1468.306396
592.462891	1392.190308
590.615234	1356.689453
588.765625	1334.728638
586.916016	1397.953125
585.066406	1377.34436
583.216797	1301.340332
581.367188	1364.527222
579.515625	1380.409546
577.664063	1366.57605
575.8125	1358.149292
573.960938	1344.327393
572.107422	1393.934082
570.253906	1357.175781
568.400391	1362.24646
566.546875	1411.812988
564.693359	1360.247192
562.837891	1425.963745
560.982422	1371.724121
559.126953	1407.769043
557.269531	1457.265015
555.414063	1411.135376
553.556641	1356.950684
551.699219	1379.505737
549.841797	1375.13916
547.982422	1390.952881
546.123047	1365.067139
544.263672	1388.942871
542.404297	1389.954834
540.544922	1388.278442
538.683594	1401.382324
536.822266	1422.539551
534.960938	1446.372559
533.099609	1448.71167
531.236328	1410.779907
529.373047	1419.836304
527.509766	1478.530396
525.646484	1492.931396
523.783203	1621.313599
521.917969	2011.07373
520.052734	2293.415527
518.1875	2106.596191
516.320313	1706.845459
514.455078	1480.072754
512.587891	1381.963257
510.720703	1356.195313
508.853516	1311.700928
506.984375	1312.724976
505.115234	1351.207642
503.246094	1326.80896
501.376953	1346.54895
499.507813	1324.836548
497.636719	1289.768921
495.765625	1324.202026
493.894531	1311.861572
492.021484	1271.479736
490.150391	1299.215698
488.277344	1312.254028
486.404297	1274.570068
484.53125	1367.66626
482.65625	1307.309082
480.78125	1310.996826
478.90625	1264.015503
477.03125	1227.720825
475.15625	1319.383667
473.279297	1289.754883
471.402344	1253.47998
469.525391	1330.421265
467.648438	1278.176514
465.769531	1296.505859
463.890625	1242.963257
462.011719	1315.841675
460.132813	1223.745361
458.251953	1248.719116
456.371094	1263.044556
454.490234	1241.474609
452.609375	1259.781372
450.728516	1227.593872
448.845703	1252.536377
446.962891	1208.414551
445.080078	1262.556885
443.197266	1225.09021
441.3125	1231.431396
439.427734	1217.869751
437.542969	1279.915649
435.658203	1206.677856
433.771484	1216.994263
431.886719	1273.694092
430	1242.912231
428.111328	1247.91333
426.224609	1287.347168
424.335938	1210.23999
422.447266	1220.540283
420.558594	1209.659912
418.669922	1238.479614
416.779297	1209.0802
414.888672	1206.145386
412.998047	1201.889648
411.107422	1208.21106
409.214844	1215.850952
407.324219	1222.165894
405.431641	1220.552002
403.537109	1188.564453
401.644531	1212.045288
399.75	1230.234741
