#Wave		#Intensity
1585.210938	26272.736328
1584.209961	26385.130859
1583.208984	26114.968750
1582.208008	26306.791016
1581.206055	26164.054688
1580.204102	26420.669922
1579.202148	26258.007813
1578.200195	26157.775391
1577.198242	26252.119141
1576.195313	25780.394531
1575.192383	26041.804688
1574.189453	26071.304688
1573.186523	25839.136719
1572.182617	25935.933594
1571.178711	25621.687500
1570.174805	25701.054688
1569.170898	25665.853516
1568.166992	25635.644531
1567.162109	25381.449219
1566.158203	25804.187500
1565.153320	25343.570313
1564.147461	25487.562500
1563.142578	25668.794922
1562.136719	25504.355469
1561.130859	25538.847656
1560.125000	25568.353516
1559.119141	25727.050781
1558.113281	26216.085938
1557.106445	26362.164063
1556.099609	26619.925781
1555.092773	26954.542969
1554.084961	27162.427734
1553.078125	27256.070313
1552.070313	28056.798828
1551.062500	28368.511719
1550.054688	28866.101563
1549.045898	29358.525391
1548.038086	29932.554688
1547.029297	30746.767578
1546.020508	31501.167969
1545.011719	32091.736328
1544.001953	33212.144531
1542.992188	34200.832031
1541.982422	34674.097656
1540.972656	35112.507813
1539.962891	35565.585938
1538.952148	36105.082031
1537.942383	36641.878906
1536.931641	36795.066406
1535.919922	36819.597656
1534.909180	36280.402344
1533.897461	35743.902344
1532.886719	35385.562500
1531.874023	34827.226563
1530.862305	33913.386719
1529.850586	32849.257813
1528.837891	32222.650391
1527.825195	31381.507813
1526.812500	30797.419922
1525.799805	30174.085938
1524.786133	29444.916016
1523.772461	29041.664063
1522.758789	28271.099609
1521.745117	27769.623047
1520.731445	27820.574219
1519.716797	27435.240234
1518.702148	27175.742188
1517.687500	26692.148438
1516.672852	26859.046875
1515.657227	26626.916016
1514.642578	26862.697266
1513.626953	26633.119141
1512.610352	26583.302734
1511.594727	26700.830078
1510.579102	26552.611328
1509.562500	26461.023438
1508.545898	26760.476563
1507.529297	26329.589844
1506.511719	26818.220703
1505.494141	26630.800781
1504.477539	26576.142578
1503.458984	26479.742188
1502.441406	26685.482422
1501.423828	26554.718750
1500.405273	26428.917969
1499.386719	26619.808594
1498.368164	26386.066406
1497.348633	26333.980469
1496.330078	26414.380859
1495.310547	26587.943359
1494.291016	26570.173828
1493.271484	26255.777344
1492.250977	26443.966797
1491.231445	26455.638672
1490.210938	26455.056641
1489.190430	26447.125000
1488.168945	26549.398438
1487.148438	26543.896484
1486.126953	26675.480469
1485.105469	26645.476563
1484.083984	26874.859375
1483.061523	26783.664063
1482.040039	26836.812500
1481.017578	27195.619141
1479.995117	27461.367188
1478.971680	27404.339844
1477.949219	27823.898438
1476.925781	28125.998047
1475.902344	28369.339844
1474.878906	28461.152344
1473.855469	29436.886719
1472.831055	29538.201172
1471.806641	30159.378906
1470.782227	31070.699219
1469.757813	31537.587891
1468.733398	31957.931641
1467.708008	32612.228516
1466.682617	33671.015625
1465.657227	34229.609375
1464.631836	35409.484375
1463.605469	36099.066406
1462.579102	37278.062500
1461.552734	38407.851563
1460.526367	39242.496094
1459.500000	40381.140625
1458.472656	41567.996094
1457.445313	42177.550781
1456.417969	42465.656250
1455.390625	42578.480469
1454.362305	42657.203125
1453.334961	42283.582031
1452.306641	42053.554688
1451.277344	41373.933594
1450.249023	40645.988281
1449.219727	39478.554688
1448.191406	38423.351563
1447.162109	37249.578125
1446.131836	35996.156250
1445.102539	34998.164063
1444.072266	34347.679688
1443.041992	33435.375000
1442.011719	32297.810547
1440.981445	31665.265625
1439.950195	31011.154297
1438.918945	30301.544922
1437.887695	29817.679688
1436.856445	29462.470703
1435.825195	29429.691406
1434.792969	28943.880859
1433.760742	28819.175781
1432.728516	28716.316406
1431.696289	28109.894531
1430.663086	28004.800781
1429.629883	27655.312500
1428.596680	27840.714844
1427.563477	27397.054688
1426.530273	27144.652344
1425.496094	27054.371094
1424.461914	26683.675781
1423.427734	26554.849609
1422.393555	26288.326172
1421.358398	25915.601563
1420.323242	26079.302734
1419.288086	25813.041016
1418.252930	26090.179688
1417.217773	25886.791016
1416.181641	25813.818359
1415.145508	25654.003906
1414.109375	25585.935547
1413.073242	26169.166016
1412.036133	26045.546875
1411.000000	25685.687500
1409.962891	25692.390625
1408.924805	25995.533203
1407.887695	26604.570313
1406.849609	26558.072266
1405.812500	26913.830078
1404.773438	27230.908203
1403.735352	28041.412109
1402.697266	28331.642578
1401.658203	28614.529297
1400.619141	29118.658203
1399.580078	29213.623047
1398.540039	29592.347656
1397.500977	29564.535156
1396.460938	29661.746094
1395.420898	29530.574219
1394.380859	29997.824219
1393.339844	29393.320313
1392.298828	29331.939453
1391.257813	29592.396484
1390.216797	29518.992188
1389.175781	29481.623047
1388.133789	29271.462891
1387.091797	29349.339844
1386.049805	29595.117188
1385.007813	29785.621094
1383.964844	29817.771484
1382.922852	30187.966797
1381.879883	30445.341797
1380.835938	30556.414063
1379.792969	30933.404297
1378.749023	31415.642578
1377.706055	31124.064453
1376.661133	31395.332031
1375.617188	31393.558594
1374.573242	31681.408203
1373.528320	32256.304688
1372.483398	32278.273438
1371.438477	32331.326172
1370.392578	32549.375000
1369.347656	32458.880859
1368.301758	32652.902344
1367.255859	32665.193359
1366.208984	33258.144531
1365.163086	33528.320313
1364.116211	33280.058594
1363.069336	33495.187500
1362.022461	33712.609375
1360.974609	33490.714844
1359.927734	33932.382813
1358.879883	33827.449219
1357.832031	34316.566406
1356.783203	34500.187500
1355.735352	34464.347656
1354.686523	34836.199219
1353.637695	35596.417969
1352.588867	35679.515625
1351.539063	36262.921875
1350.490234	36922.308594
1349.440430	37793.375000
1348.390625	38492.636719
1347.339844	39322.531250
1346.290039	39842.667969
1345.239258	40453.007813
1344.188477	41143.976563
1343.137695	41737.132813
1342.085938	42261.070313
1341.034180	42463.812500
1339.982422	43545.988281
1338.930664	43710.343750
1337.878906	44585.078125
1336.826172	44418.933594
1335.773438	44841.875000
1334.720703	45022.429688
1333.667969	44941.753906
1332.614258	45017.769531
1331.561523	44455.378906
1330.507813	44277.589844
1329.453125	43516.328125
1328.399414	43390.976563
1327.344727	42300.632813
1326.290039	41879.257813
1325.235352	41097.796875
1324.180664	41010.960938
1323.125000	40770.164063
1322.070313	40207.335938
1321.014648	40412.011719
1319.958008	40417.718750
1318.902344	39900.285156
1317.845703	39385.433594
1316.789063	39135.800781
1315.732422	38820.035156
1314.675781	38194.562500
1313.618164	37460.582031
1312.560547	36795.464844
1311.502930	35851.714844
1310.445313	35128.132813
1309.386719	34367.050781
1308.329102	33129.132813
1307.270508	32576.613281
1306.210938	32033.767578
1305.152344	30830.164063
1304.092773	30502.685547
1303.033203	30092.755859
1301.973633	29602.783203
1300.914063	29223.873047
1299.853516	29073.861328
1298.792969	28721.152344
1297.732422	28898.955078
1296.671875	28548.783203
1295.611328	28366.046875
1294.549805	28369.484375
1293.488281	28332.878906
1292.426758	28218.582031
1291.364258	28377.419922
1290.302734	28256.095703
1289.240234	28654.878906
1288.177734	27973.603516
1287.114258	28137.052734
1286.051758	28072.316406
1284.988281	27939.419922
1283.924805	28185.041016
1282.861328	28127.378906
1281.796875	28260.068359
1280.732422	28225.902344
1279.667969	28100.148438
1278.603516	27835.902344
1277.539063	28109.394531
1276.473633	28298.267578
1275.408203	28219.533203
1274.342773	28140.828125
1273.277344	27961.287109
1272.210938	28412.691406
1271.145508	28193.304688
1270.079102	28337.367188
1269.011719	27874.333984
1267.945313	28477.677734
1266.877930	28192.857422
1265.810547	27966.710938
1264.743164	27548.632813
1263.674805	27362.515625
1262.607422	27129.660156
1261.539063	26595.003906
1260.470703	26533.210938
1259.401367	26281.957031
1258.333008	26023.792969
1257.263672	25646.484375
1256.194336	25447.003906
1255.125000	25373.824219
1254.054688	24753.857422
1252.985352	24430.863281
1251.915039	24369.617188
1250.843750	24121.568359
1249.773438	23924.990234
1248.702148	23693.478516
1247.630859	23506.406250
1246.559570	23501.412109
1245.488281	23340.119141
1244.416016	23027.287109
1243.343750	23099.343750
1242.271484	22837.984375
1241.199219	22770.195313
1240.125977	22669.808594
1239.053711	22634.697266
1237.980469	22362.003906
1236.906250	22536.570313
1235.833008	22515.476563
1234.758789	22282.550781
1233.684570	22459.343750
1232.610352	22547.638672
1231.536133	22419.537109
1230.460938	22482.214844
1229.385742	22598.347656
1228.310547	22451.712891
1227.235352	22567.798828
1226.159180	22393.341797
1225.083008	22857.902344
1224.006836	22846.060547
1222.930664	22692.552734
1221.853516	23012.787109
1220.777344	23142.521484
1219.700195	23218.818359
1218.622070	23534.087891
1217.544922	23526.746094
1216.466797	23846.449219
1215.388672	24015.283203
1214.310547	24151.582031
1213.232422	24772.281250
1212.153320	24611.718750
1211.074219	25072.175781
1209.995117	25094.617188
1208.916016	25355.595703
1207.835938	25371.017578
1206.755859	25266.048828
1205.675781	25165.751953
1204.595703	25340.863281
1203.514648	25279.919922
1202.434570	25445.677734
1201.353516	25160.416016
1200.271484	25300.691406
1199.190430	25022.513672
1198.108398	24880.806641
1197.026367	24833.888672
1195.944336	24313.427734
1194.862305	24312.839844
1193.779297	24000.525391
1192.696289	23845.326172
1191.613281	23650.953125
1190.530273	23285.900391
1189.446289	23027.128906
1188.362305	23033.726563
1187.278320	22426.892578
1186.194336	22541.976563
1185.109375	22304.324219
1184.024414	21898.535156
1182.939453	21891.531250
1181.854492	21826.939453
1180.768555	21631.093750
1179.683594	21421.515625
1178.597656	21393.894531
1177.510742	21149.927734
1176.424805	21290.357422
1175.337891	21007.402344
1174.250977	20906.283203
1173.164063	21009.875000
1172.077148	21092.728516
1170.989258	20973.257813
1169.901367	20890.611328
1168.813477	20697.707031
1167.724609	21090.671875
1166.636719	21026.419922
1165.547852	21132.115234
1164.458984	21467.333984
1163.369141	21359.427734
1162.280273	21621.019531
1161.190430	21731.076172
1160.100586	22130.095703
1159.010742	21992.320313
1157.919922	22530.966797
1156.829102	22253.332031
1155.738281	22633.554688
1154.647461	22399.548828
1153.555664	22529.875000
1152.464844	22353.246094
1151.373047	22426.277344
1150.280273	22439.755859
1149.188477	22210.611328
1148.095703	22180.646484
1147.002930	22260.509766
1145.910156	22008.671875
1144.817383	21649.460938
1143.723633	21795.685547
1142.629883	21493.818359
1141.536133	21484.603516
1140.441406	21269.755859
1139.347656	21214.902344
1138.252930	21009.337891
1137.158203	20803.857422
1136.062500	20927.201172
1134.967773	21002.560547
1133.872070	20566.738281
1132.776367	20785.867188
1131.679688	20765.404297
1130.583984	20678.814453
1129.487305	20605.941406
1128.390625	20904.644531
1127.292969	20622.087891
1126.196289	20588.001953
1125.098633	20881.955078
1124.000977	20820.494141
1122.903320	20720.351563
1121.804688	20574.718750
1120.706055	20699.990234
1119.607422	20768.318359
1118.508789	20665.990234
1117.409180	20454.529297
1116.310547	20647.929688
1115.210938	20409.279297
1114.110352	20318.476563
1113.010742	20368.607422
1111.910156	20246.039063
1110.809570	20221.199219
1109.708984	20041.939453
1108.607422	20048.939453
1107.506836	20278.398438
1106.405273	20160.515625
1105.303711	20097.138672
1104.201172	20065.546875
1103.098633	19893.345703
1101.996094	19773.375000
1100.893555	19841.621094
1099.791016	19952.902344
1098.687500	19894.173828
1097.583984	20009.923828
1096.480469	19901.373047
1095.376953	20114.445313
1094.272461	20010.443359
1093.167969	20205.287109
1092.063477	20569.779297
1090.958008	20585.664063
1089.853516	20479.380859
1088.748047	20710.132813
1087.642578	20940.781250
1086.536133	21392.875000
1085.430664	21695.595703
1084.324219	21901.017578
1083.217773	22187.677734
1082.110352	22672.978516
1081.003906	22812.558594
1079.896484	23335.886719
1078.789063	23005.751953
1077.680664	23619.076172
1076.573242	23550.744141
1075.464844	23750.875000
1074.356445	23687.050781
1073.247070	23546.587891
1072.138672	23444.509766
1071.029297	22990.880859
1069.919922	22807.845703
1068.809570	22719.505859
1067.700195	22261.822266
1066.589844	22058.792969
1065.479492	21714.017578
1064.368164	21421.160156
1063.257813	21474.982422
1062.146484	21166.552734
1061.035156	20898.744141
1059.922852	20590.570313
1058.811523	20273.539063
1057.699219	20334.285156
1056.586914	20129.814453
1055.473633	19819.826172
1054.361328	20004.179688
1053.248047	19939.154297
1052.134766	19467.736328
1051.021484	19939.390625
1049.907227	19616.308594
1048.792969	19757.861328
1047.678711	19502.261719
1046.564453	19538.353516
1045.449219	19527.337891
1044.333984	19493.906250
1043.218750	19574.800781
1042.103516	19536.888672
1040.987305	19438.496094
1039.871094	19427.505859
1038.754883	19528.494141
1037.638672	19414.490234
1036.521484	19466.185547
1035.404297	19513.380859
1034.287109	19500.138672
1033.169922	19312.412109
1032.051758	19549.710938
1030.933594	19487.273438
1029.815430	19538.873047
1028.697266	19554.689453
1027.578125	19510.162109
1026.458984	19472.353516
1025.339844	19432.328125
1024.220703	19548.636719
1023.100586	19611.308594
1021.980469	19444.041016
1020.860352	19415.208984
1019.740234	19640.736328
1018.619141	19629.714844
1017.498047	19509.417969
1016.376953	19587.611328
1015.255859	19306.873047
1014.133789	19271.412109
1013.011719	19434.273438
1011.889648	19418.845703
1010.767578	19425.695313
1009.644531	19568.369141
1008.521484	19270.187500
1007.398438	19568.630859
1006.274414	19479.748047
1005.151367	19604.480469
1004.027344	19738.050781
1002.902344	19722.570313
1001.778320	19509.220703
1000.653320	19931.681641
999.528320	19840.605469
998.403320	19807.332031
997.278320	19976.212891
996.152344	20082.832031
995.026367	19938.507813
993.900391	19989.589844
992.773438	19958.533203
991.646484	20542.107422
990.519531	20535.339844
989.392578	20972.146484
988.265625	20963.064453
987.137695	21122.468750
986.009766	20958.207031
984.881836	21279.298828
983.752930	21380.919922
982.624023	21245.498047
981.495117	21174.353516
980.366211	21236.074219
979.236328	20981.244141
978.106445	21007.568359
976.976563	20969.718750
975.846680	20597.876953
974.715820	20414.171875
973.585938	20274.769531
972.454102	20285.738281
971.323242	19903.320313
970.191406	19697.832031
969.060547	19943.074219
967.927734	19706.746094
966.795898	19512.472656
965.663086	19497.095703
964.530273	19737.744141
963.397461	19426.640625
962.264648	19351.724609
961.130859	19398.146484
959.997070	19340.906250
958.863281	19546.039063
957.729492	19537.279297
956.594727	19473.429688
955.459961	19436.046875
954.325195	19378.853516
953.189453	19372.333984
952.053711	19264.539063
950.917969	19132.578125
949.782227	19192.132813
948.646484	19484.878906
947.509766	19410.142578
946.373047	19309.048828
945.235352	19328.927734
944.098633	19285.046875
942.960938	19144.484375
941.823242	19450.023438
940.685547	19478.632813
939.546875	19621.433594
938.408203	19819.062500
937.269531	19474.367188
936.129883	19671.937500
934.991211	20027.408203
933.851563	19812.326172
932.711914	20288.236328
931.571289	20130.203125
930.431641	20296.705078
929.291016	20412.718750
928.149414	20423.492188
927.008789	20681.828125
925.867188	20532.634766
924.725586	20324.380859
923.583984	20221.308594
922.441406	20223.349609
921.299805	20164.111328
920.157227	19813.902344
919.013672	19603.845703
917.871094	19450.742188
916.727539	19382.976563
915.583984	19299.937500
914.439453	19199.451172
913.295898	19020.347656
912.151367	18889.382813
911.006836	18834.914063
909.861328	18723.697266
908.716797	18581.966797
907.571289	18868.076172
906.424805	19038.406250
905.279297	18695.992188
904.132813	18833.564453
902.986328	18875.128906
901.839844	18709.564453
900.692383	18705.361328
899.545898	18505.039063
898.398438	18906.107422
897.250000	18792.953125
896.102539	18793.083984
894.954102	18693.064453
893.805664	18817.287109
892.656250	18719.480469
891.507813	18465.066406
890.358398	18695.833984
889.208984	18719.900391
888.058594	18963.548828
886.908203	18511.492188
885.758789	18550.791016
884.607422	18690.017578
883.457031	18525.062500
882.305664	18514.375000
881.154297	18495.005859
880.002930	18508.207031
878.850586	18512.718750
877.698242	18387.037109
876.545898	18567.287109
875.393555	18344.048828
874.240234	18296.546875
873.086914	18099.480469
871.933594	18238.445313
870.780273	18240.833984
869.625977	18414.363281
868.471680	18414.539063
867.317383	18345.421875
866.162109	18295.818359
865.007813	18018.968750
863.852539	18287.558594
862.696289	18073.574219
861.541016	18316.070313
860.384766	18136.771484
859.228516	18301.310547
858.072266	17871.359375
856.915039	18076.939453
855.757813	17772.539063
854.600586	18228.611328
853.442383	18043.087891
852.285156	18321.845703
851.126953	18239.992188
849.968750	18244.500000
848.809570	18134.648438
847.650391	18180.160156
846.491211	18029.394531
845.332031	17928.289063
844.171875	17885.427734
843.012695	17974.050781
841.851563	18161.746094
840.691406	18090.853516
839.530273	18136.291016
838.369141	18013.755859
837.208008	18196.960938
836.046875	18072.312500
834.884766	18143.527344
833.722656	18150.169922
832.560547	18290.158203
831.397461	18139.791016
830.234375	18002.390625
829.071289	18073.533203
827.908203	18011.414063
826.744141	18080.371094
825.580078	18125.667969
824.416016	18505.931641
823.251953	18482.410156
822.086914	18224.939453
820.921875	18229.384766
819.756836	18351.824219
818.590820	18336.931641
817.425781	18150.490234
816.259766	18320.025391
815.092773	18015.779297
813.926758	18292.414063
812.759766	18258.261719
811.592773	18256.251953
810.424805	18202.847656
809.257813	18134.476563
808.089844	18141.056641
806.920898	17937.904297
805.752930	17970.197266
804.583984	17835.625000
803.415039	17970.574219
802.246094	17970.759766
801.076172	18045.761719
799.906250	18174.156250
798.736328	18170.017578
797.566406	17787.781250
796.395508	18213.000000
795.224609	18240.878906
794.053711	18258.070313
792.881836	18601.787109
791.710938	18691.431641
790.538086	18855.697266
789.366211	19192.638672
788.194336	19544.353516
787.021484	19934.275391
785.848633	19916.943359
784.674805	20114.826172
783.500977	19735.302734
782.327148	19807.474609
781.153320	19873.222656
779.979492	19668.574219
778.804688	19534.255859
777.629883	19304.240234
776.454102	19123.257813
775.279297	18923.214844
774.103516	19016.710938
772.927734	18944.337891
771.750977	19154.681641
770.575195	19218.306641
769.398438	19241.533203
768.220703	19536.623047
767.043945	19857.056641
765.866211	19852.517578
764.688477	19839.490234
763.510742	20567.066406
762.332031	20770.279297
761.153320	21361.558594
759.974609	22472.113281
758.794922	22797.712891
757.616211	24509.408203
756.436523	25518.875000
755.255859	27642.300781
754.076172	30146.025391
752.895508	33070.023438
751.714844	36977.187500
750.533203	40918.542969
749.352539	45708.824219
748.170898	50054.710938
746.988281	53131.554688
745.806641	55752.304688
744.624023	56657.140625
743.441406	56270.015625
742.258789	55202.562500
741.075195	53328.488281
739.891602	52034.054688
738.708008	49530.101563
737.523438	47928.859375
736.339844	46113.035156
735.155273	44785.550781
733.969727	42973.382813
732.785156	40461.695313
731.599609	37976.468750
730.414063	35658.949219
729.227539	32720.625000
728.041992	29412.720703
726.855469	27296.816406
725.667969	25432.560547
724.481445	24095.679688
723.293945	22529.900391
722.106445	21646.894531
720.918945	21109.451172
719.730469	20359.736328
718.541992	20474.968750
717.353516	19997.048828
716.164063	19813.726563
714.975586	19271.007813
713.786133	19493.566406
712.595703	19226.429688
711.406250	19291.337891
710.215820	19095.777344
709.025391	19028.394531
707.833984	19105.892578
706.642578	19170.761719
705.451172	18935.533203
704.259766	19224.880859
703.068359	19115.589844
701.875977	19316.689453
700.683594	19603.648438
699.490234	20064.437500
698.297852	20900.099609
697.104492	21571.966797
695.910156	22346.154297
694.716797	23228.871094
693.522461	23996.037109
692.328125	24191.445313
691.132813	24472.556641
689.938477	24293.279297
688.743164	24011.593750
687.547852	23508.376953
686.351563	22944.761719
685.155273	22527.714844
683.958984	21903.980469
682.762695	21499.898438
681.565430	20880.863281
680.368164	20508.521484
679.170898	20526.761719
677.973633	20453.150391
676.775391	20406.699219
675.577148	20243.435547
674.378906	20368.089844
673.179688	20163.201172
671.980469	19789.529297
670.781250	19889.185547
669.581055	19703.298828
668.381836	19321.654297
667.181641	19310.949219
665.980469	19069.093750
664.780273	18971.003906
663.579102	18525.349609
662.377930	18754.148438
661.175781	18624.988281
659.973633	18597.808594
658.771484	18870.099609
657.569336	18649.517578
656.367188	18557.910156
655.164063	18877.814453
653.960938	18964.873047
652.756836	19191.060547
651.552734	19275.927734
650.348633	19786.376953
649.144531	20030.896484
647.939453	20190.214844
646.735352	20839.107422
645.529297	20794.880859
644.324219	20985.015625
643.118164	20714.777344
641.912109	20569.035156
640.706055	20448.228516
639.499023	20445.574219
638.292969	20057.634766
637.084961	19497.984375
635.877930	19091.804688
634.669922	18878.322266
633.461914	18625.615234
632.253906	18567.513672
631.044922	18180.537109
629.836914	18279.736328
628.626953	18149.384766
627.417969	18132.785156
626.208008	17795.861328
624.998047	17921.912109
623.788086	17591.386719
622.577148	17911.554688
621.366211	17434.587891
620.155273	17424.361328
618.944336	17655.599609
617.732422	17552.474609
616.520508	17024.455078
615.308594	17195.814453
614.095703	17266.060547
612.882813	17280.617188
611.669922	17288.982422
610.457031	17330.308594
609.243164	17196.519531
608.029297	17124.574219
606.815430	17079.427734
605.600586	17474.828125
604.385742	17238.220703
603.170898	17386.488281
601.955078	17277.550781
600.740234	17623.173828
599.524414	17506.003906
598.307617	17680.791016
597.091797	17508.169922
595.875000	17701.365234
594.658203	17514.437500
593.440430	17925.238281
592.222656	17658.263672
591.004883	17674.701172
589.787109	17574.144531
588.568359	17379.248047
587.349609	17276.753906
586.130859	17313.767578
584.912109	17133.417969
583.692383	17270.892578
582.472656	17100.880859
581.251953	17076.425781
580.032227	17185.136719
578.811523	17238.498047
577.589844	17279.548828
576.369141	17775.035156
575.147461	17867.105469
573.925781	18083.947266
572.703125	18310.916016
571.481445	18762.751953
570.258789	18901.531250
569.035156	19796.623047
567.812500	20049.548828
566.588867	20494.425781
565.365234	20865.554688
564.140625	21171.154297
562.916992	21135.615234
561.692383	21441.005859
560.466797	21260.511719
559.242188	21067.855469
558.016602	20920.167969
556.791016	20158.650391
555.564453	20111.154297
554.337891	19439.873047
553.111328	18752.595703
551.884766	18049.337891
550.657227	17996.257813
549.429688	17383.111328
548.202148	17260.976563
546.974609	16937.359375
545.746094	16955.816406
544.517578	16677.185547
543.288086	16785.201172
542.058594	16842.322266
540.829102	16541.539063
539.599609	16600.718750
538.370117	16637.515625
537.139648	16548.310547
535.909180	16485.554688
534.677734	16573.125000
533.446289	16532.726563
532.214844	16439.566406
530.983398	16567.673828
529.750977	16273.661133
528.519531	16338.857422
527.286133	16176.865234
526.053711	16227.858398
524.820313	16307.208008
523.586914	16439.216797
522.353516	16305.715820
521.119141	16474.125000
519.884766	16385.236328
518.650391	16328.783203
517.415039	16252.112305
516.179688	16226.075195
514.944336	16341.693359
513.708984	15892.834961
