#Wave		#Intensity
1585.210938	10355.240234
1584.209961	10110.470703
1583.208984	10183.289063
1582.208008	10178.683594
1581.206055	10276.417969
1580.204102	10171.970703
1579.202148	10292.121094
1578.200195	10277.516602
1577.198242	10242.964844
1576.195313	10133.622070
1575.192383	10191.355469
1574.189453	10254.048828
1573.186523	10284.320313
1572.182617	10115.263672
1571.178711	10105.695313
1570.174805	10225.632813
1569.170898	10517.323242
1568.166992	10266.207031
1567.162109	10209.325195
1566.158203	10266.931641
1565.153320	10324.513672
1564.147461	10155.724609
1563.142578	10335.159180
1562.136719	10330.532227
1561.130859	10380.594727
1560.125000	10331.224609
1559.119141	10266.966797
1558.113281	10443.706055
1557.106445	10560.761719
1556.099609	10762.197266
1555.092773	10792.244141
1554.084961	10591.435547
1553.078125	10762.958984
1552.070313	10775.617188
1551.062500	10738.657227
1550.054688	10600.027344
1549.045898	10659.823242
1548.038086	10590.680664
1547.029297	10662.844727
1546.020508	10432.655273
1545.011719	10390.854492
1544.001953	10480.353516
1542.992188	10525.238281
1541.982422	10419.066406
1540.972656	10340.168945
1539.962891	10172.203125
1538.952148	10296.295898
1537.942383	10318.903320
1536.931641	10289.559570
1535.919922	10376.455078
1534.909180	10250.684570
1533.897461	10335.080078
1532.886719	10211.840820
1531.874023	10157.837891
1530.862305	10019.864258
1529.850586	10020.258789
1528.837891	10082.387695
1527.825195	10102.519531
1526.812500	10154.731445
1525.799805	10026.769531
1524.786133	10177.666992
1523.772461	10219.961914
1522.758789	10027.941406
1521.745117	10210.798828
1520.731445	10282.642578
1519.716797	9962.558594
1518.702148	10118.208008
1517.687500	10071.765625
1516.672852	10059.826172
1515.657227	10225.208008
1514.642578	10252.636719
1513.626953	10211.126953
1512.610352	10248.390625
1511.594727	10002.661133
1510.579102	10103.916992
1509.562500	9996.058594
1508.545898	9993.988281
1507.529297	10097.639648
1506.511719	10147.168945
1505.494141	10312.185547
1504.477539	10238.792969
1503.458984	10030.317383
1502.441406	10089.641602
1501.423828	10001.606445
1500.405273	10284.323242
1499.386719	10193.828125
1498.368164	10260.429688
1497.348633	9956.516602
1496.330078	10192.399414
1495.310547	10124.069336
1494.291016	10195.532227
1493.271484	10414.055664
1492.250977	10338.367188
1491.231445	10137.734375
1490.210938	10373.283203
1489.190430	10150.679688
1488.168945	10204.902344
1487.148438	10092.605469
1486.126953	10420.989258
1485.105469	10328.273438
1484.083984	10267.405273
1483.061523	10456.099609
1482.040039	10387.891602
1481.017578	10461.545898
1479.995117	10584.068359
1478.971680	10701.650391
1477.949219	10723.870117
1476.925781	10711.873047
1475.902344	10800.039063
1474.878906	10976.093750
1473.855469	11408.472656
1472.831055	11078.961914
1471.806641	11196.266602
1470.782227	11345.247070
1469.757813	11591.758789
1468.733398	11494.219727
1467.708008	11784.497070
1466.682617	12033.200195
1465.657227	12335.433594
1464.631836	12527.860352
1463.605469	12773.816406
1462.579102	12841.818359
1461.552734	13267.856445
1460.526367	13481.844727
1459.500000	13500.959961
1458.472656	13685.598633
1457.445313	13685.191406
1456.417969	13599.619141
1455.390625	13470.291992
1454.362305	13209.673828
1453.334961	13065.888672
1452.306641	12827.343750
1451.277344	12795.510742
1450.249023	12311.664063
1449.219727	12301.817383
1448.191406	12036.904297
1447.162109	11871.678711
1446.131836	11801.222656
1445.102539	11684.666992
1444.072266	11614.277344
1443.041992	11871.524414
1442.011719	11594.894531
1440.981445	11483.328125
1439.950195	11701.636719
1438.918945	11323.375000
1437.887695	11342.839844
1436.856445	11299.279297
1435.825195	11258.159180
1434.792969	11270.355469
1433.760742	11178.391602
1432.728516	10849.139648
1431.696289	11055.105469
1430.663086	11091.538086
1429.629883	10898.037109
1428.596680	10813.501953
1427.563477	10830.606445
1426.530273	10825.934570
1425.496094	10639.902344
1424.461914	10516.806641
1423.427734	10459.023438
1422.393555	10575.263672
1421.358398	10618.969727
1420.323242	10428.339844
1419.288086	10459.981445
1418.252930	10530.243164
1417.217773	10445.970703
1416.181641	10528.273438
1415.145508	10656.390625
1414.109375	10514.239258
1413.073242	10618.182617
1412.036133	10666.616211
1411.000000	10567.949219
1409.962891	10773.061523
1408.924805	10978.087891
1407.887695	11151.703125
1406.849609	11477.018555
1405.812500	11532.434570
1404.773438	11802.147461
1403.735352	11874.323242
1402.697266	12285.871094
1401.658203	12297.750000
1400.619141	12348.120117
1399.580078	12651.057617
1398.540039	12525.759766
1397.500977	12614.522461
1396.460938	12352.249023
1395.420898	12474.660156
1394.380859	12423.996094
1393.339844	12443.028320
1392.298828	12096.933594
1391.257813	12077.597656
1390.216797	12183.126953
1389.175781	12161.379883
1388.133789	12046.037109
1387.091797	12108.312500
1386.049805	12451.252930
1385.007813	12642.938477
1383.964844	12892.097656
1382.922852	12982.911133
1381.879883	13294.217773
1380.835938	13756.377930
1379.792969	13938.002930
1378.749023	14284.845703
1377.706055	14368.084961
1376.661133	14630.880859
1375.617188	14656.551758
1374.573242	14500.299805
1373.528320	14554.703125
1372.483398	14463.135742
1371.438477	14400.309570
1370.392578	14301.635742
1369.347656	14150.398438
1368.301758	13772.118164
1367.255859	13535.010742
1366.208984	13639.709961
1365.163086	13314.331055
1364.116211	13285.271484
1363.069336	13041.295898
1362.022461	12873.823242
1360.974609	12921.257813
1359.927734	12780.131836
1358.879883	12932.550781
1357.832031	12934.614258
1356.783203	12826.962891
1355.735352	12836.199219
1354.686523	12831.126953
1353.637695	13064.414063
1352.588867	13097.422852
1351.539063	13468.745117
1350.490234	13701.749023
1349.440430	14046.588867
1348.390625	14374.616211
1347.339844	14831.055664
1346.290039	15025.494141
1345.239258	15405.457031
1344.188477	15630.619141
1343.137695	15822.385742
1342.085938	16444.505859
1341.034180	16526.648438
1339.982422	16680.070313
1338.930664	17116.240234
1337.878906	17174.427734
1336.826172	17263.470703
1335.773438	17597.111328
1334.720703	17503.181641
1333.667969	17202.744141
1332.614258	17372.406250
1331.561523	16974.822266
1330.507813	16719.759766
1329.453125	16600.013672
1328.399414	16349.879883
1327.344727	16031.085938
1326.290039	15994.529297
1325.235352	15713.863281
1324.180664	15454.641602
1323.125000	15214.481445
1322.070313	15099.957031
1321.014648	15267.286133
1319.958008	14856.843750
1318.902344	14683.286133
1317.845703	14313.370117
1316.789063	14187.319336
1315.732422	14082.611328
1314.675781	13921.183594
1313.618164	13788.199219
1312.560547	13641.083984
1311.502930	13453.847656
1310.445313	13266.689453
1309.386719	13126.862305
1308.329102	12946.936523
1307.270508	12712.766602
1306.210938	12466.889648
1305.152344	12572.852539
1304.092773	12584.364258
1303.033203	12369.341797
1301.973633	12225.184570
1300.914063	12342.899414
1299.853516	11986.571289
1298.792969	11925.101563
1297.732422	11908.443359
1296.671875	11750.390625
1295.611328	11686.650391
1294.549805	11740.721680
1293.488281	11552.183594
1292.426758	11495.587891
1291.364258	11464.910156
1290.302734	11413.062500
1289.240234	11471.834961
1288.177734	11380.009766
1287.114258	11405.833008
1286.051758	11325.816406
1284.988281	11591.461914
1283.924805	11426.812500
1282.861328	11584.212891
1281.796875	11638.157227
1280.732422	11793.094727
1279.667969	11727.185547
1278.603516	12051.109375
1277.539063	12003.953125
1276.473633	12266.651367
1275.408203	12231.202148
1274.342773	12531.279297
1273.277344	12465.291992
1272.210938	12495.486328
1271.145508	12431.877930
1270.079102	12415.179688
1269.011719	12464.113281
1267.945313	12156.849609
1266.877930	12121.475586
1265.810547	11830.808594
1264.743164	11945.390625
1263.674805	11640.833984
1262.607422	11366.835938
1261.539063	11310.599609
1260.470703	11193.551758
1259.401367	11291.767578
1258.333008	11135.012695
1257.263672	11284.639648
1256.194336	11027.424805
1255.125000	10896.533203
1254.054688	11025.082031
1252.985352	11146.566406
1251.915039	10884.924805
1250.843750	10789.200195
1249.773438	10737.877930
1248.702148	10868.654297
1247.630859	10579.283203
1246.559570	10917.703125
1245.488281	10689.097656
1244.416016	10775.455078
1243.343750	10726.527344
1242.271484	10570.377930
1241.199219	10791.892578
1240.125977	10610.160156
1239.053711	10784.973633
1237.980469	10600.987305
1236.906250	10647.638672
1235.833008	10792.061523
1234.758789	10666.385742
1233.684570	10903.836914
1232.610352	10771.208984
1231.536133	10731.693359
1230.460938	10622.416016
1229.385742	10720.146484
1228.310547	10799.234375
1227.235352	10771.364258
1226.159180	10662.168945
1225.083008	10690.100586
1224.006836	10806.291016
1222.930664	10794.697266
1221.853516	10680.942383
1220.777344	10817.951172
1219.700195	10657.818359
1218.622070	10623.057617
1217.544922	10683.429688
1216.466797	10535.023438
1215.388672	10741.482422
1214.310547	10695.137695
1213.232422	10736.895508
1212.153320	10855.112305
1211.074219	10841.208008
1209.995117	10771.713867
1208.916016	10794.887695
1207.835938	10857.415039
1206.755859	10936.120117
1205.675781	10706.958984
1204.595703	10658.388672
1203.514648	10787.980469
1202.434570	10739.412109
1201.353516	10815.741211
1200.271484	10757.938477
1199.190430	10739.455078
1198.108398	10700.179688
1197.026367	10905.838867
1195.944336	10607.815430
1194.862305	10563.971680
1193.779297	10594.036133
1192.696289	10568.680664
1191.613281	10474.092773
1190.530273	10278.010742
1189.446289	10531.895508
1188.362305	10363.562500
1187.278320	10395.931641
1186.194336	10273.810547
1185.109375	10273.912109
1184.024414	10128.821289
1182.939453	9995.312500
1181.854492	10264.996094
1180.768555	10062.419922
1179.683594	9878.350586
1178.597656	10088.028320
1177.510742	9908.633789
1176.424805	9832.868164
1175.337891	9987.201172
1174.250977	9978.155273
1173.164063	9925.417969
1172.077148	9941.677734
1170.989258	10003.904297
1169.901367	10125.855469
1168.813477	9905.396484
1167.724609	9985.965820
1166.636719	9979.223633
1165.547852	9846.192383
1164.458984	9910.649414
1163.369141	9809.821289
1162.280273	9890.319336
1161.190430	10005.196289
1160.100586	9814.954102
1159.010742	9996.300781
1157.919922	10021.660156
1156.829102	9881.964844
1155.738281	10047.134766
1154.647461	9967.065430
1153.555664	9868.704102
1152.464844	10045.218750
1151.373047	9770.566406
1150.280273	10155.351563
1149.188477	10043.297852
1148.095703	10100.626953
1147.002930	10176.232422
1145.910156	10112.278320
1144.817383	10206.141602
1143.723633	10105.625977
1142.629883	10071.441406
1141.536133	10130.969727
1140.441406	10195.041992
1139.347656	10142.583008
1138.252930	10247.733398
1137.158203	10081.114258
1136.062500	9957.942383
1134.967773	10065.343750
1133.872070	10295.919922
1132.776367	9974.295898
1131.679688	10081.622070
1130.583984	10152.413086
1129.487305	10198.094727
1128.390625	10371.402344
1127.292969	10145.821289
1126.196289	10061.600586
1125.098633	10063.976563
1124.000977	9979.808594
1122.903320	9795.489258
1121.804688	10089.306641
1120.706055	9966.493164
1119.607422	9911.996094
1118.508789	10130.521484
1117.409180	9848.561523
1116.310547	10187.525391
1115.210938	9955.690430
1114.110352	9905.796875
1113.010742	9733.208008
1111.910156	9892.409180
1110.809570	10006.109375
1109.708984	10151.554688
1108.607422	9981.329102
1107.506836	9972.350586
1106.405273	9838.548828
1105.303711	9865.909180
1104.201172	9811.586914
1103.098633	9857.083984
1101.996094	9827.729492
1100.893555	9784.785156
1099.791016	9830.254883
1098.687500	9698.948242
1097.583984	9685.509766
1096.480469	9701.522461
1095.376953	9810.377930
1094.272461	9762.958984
1093.167969	9550.314453
1092.063477	9783.602539
1090.958008	9756.582031
1089.853516	9777.078125
1088.748047	9743.283203
1087.642578	9831.607422
1086.536133	9750.339844
1085.430664	9816.019531
1084.324219	9635.363281
1083.217773	9667.149414
1082.110352	9644.711914
1081.003906	9809.715820
1079.896484	9739.842773
1078.789063	9778.347656
1077.680664	9807.806641
1076.573242	10033.546875
1075.464844	9713.293945
1074.356445	9943.463867
1073.247070	9659.445313
1072.138672	9783.574219
1071.029297	9988.784180
1069.919922	9745.498047
1068.809570	9840.238281
1067.700195	9590.332031
1066.589844	9757.120117
1065.479492	9813.520508
1064.368164	9858.640625
1063.257813	9712.461914
1062.146484	9845.326172
1061.035156	9748.698242
1059.922852	9746.563477
1058.811523	9814.127930
1057.699219	9798.491211
1056.586914	9805.333984
1055.473633	9769.482422
1054.361328	9751.616211
1053.248047	9855.036133
1052.134766	9814.703125
1051.021484	9738.468750
1049.907227	9897.931641
1048.792969	9702.782227
1047.678711	9951.918945
1046.564453	9694.038086
1045.449219	9833.185547
1044.333984	9985.722656
1043.218750	9875.939453
1042.103516	9853.601563
1040.987305	10023.955078
1039.871094	9855.992188
1038.754883	10109.130859
1037.638672	10095.713867
1036.521484	10024.100586
1035.404297	9986.087891
1034.287109	9965.992188
1033.169922	9932.481445
1032.051758	9869.909180
1030.933594	9995.193359
1029.815430	10131.598633
1028.697266	10198.656250
1027.578125	10089.151367
1026.458984	10167.357422
1025.339844	10290.199219
1024.220703	10182.976563
1023.100586	10138.313477
1021.980469	10348.131836
1020.860352	10352.545898
1019.740234	10417.198242
1018.619141	10281.062500
1017.498047	10374.692383
1016.376953	10218.557617
1015.255859	10254.199219
1014.133789	10403.487305
1013.011719	10165.002930
1011.889648	10138.254883
1010.767578	10369.874023
1009.644531	10311.916016
1008.521484	10327.449219
1007.398438	10176.043945
1006.274414	10227.201172
1005.151367	10382.899414
1004.027344	10380.604492
1002.902344	10364.967773
1001.778320	10322.657227
1000.653320	10202.567383
999.528320	10322.537109
998.403320	10278.039063
997.278320	10138.043945
996.152344	10095.826172
995.026367	10142.439453
993.900391	9993.685547
992.773438	10153.484375
991.646484	10082.452148
990.519531	10093.529297
989.392578	9993.707031
988.265625	10040.274414
987.137695	9993.711914
986.009766	10108.965820
984.881836	10084.566406
983.752930	10024.729492
982.624023	10111.103516
981.495117	10022.498047
980.366211	9980.423828
979.236328	9993.703125
978.106445	10110.985352
976.976563	10077.766602
975.846680	10159.583984
974.715820	10090.983398
973.585938	9838.901367
972.454102	10166.080078
971.323242	9945.030273
970.191406	10170.400391
969.060547	10000.254883
967.927734	9986.989258
966.795898	10048.801758
965.663086	10181.228516
964.530273	10375.392578
963.397461	10234.070313
962.264648	10273.708984
961.130859	10584.616211
959.997070	10485.236328
958.863281	10520.380859
957.729492	10476.160156
956.594727	10625.877930
955.459961	10627.917969
954.325195	10447.135742
953.189453	10398.563477
952.053711	10283.960938
950.917969	10109.977539
949.782227	10107.724609
948.646484	10083.468750
947.509766	10109.816406
946.373047	10283.498047
945.235352	10195.454102
944.098633	9966.761719
942.960938	10041.458984
941.823242	10048.006836
940.685547	10056.747070
939.546875	10146.745117
938.408203	10122.521484
937.269531	10043.425781
936.129883	10137.752930
934.991211	10168.402344
933.851563	10056.439453
932.711914	10269.137695
931.571289	10091.416016
930.431641	10176.852539
929.291016	10455.134766
928.149414	10222.703125
927.008789	10180.980469
925.867188	10229.081055
924.725586	10174.235352
923.583984	10167.579102
922.441406	10309.771484
921.299805	10405.941406
920.157227	10228.577148
919.013672	10090.665039
917.871094	9989.992188
916.727539	10033.668945
915.583984	10024.863281
914.439453	10142.817383
913.295898	10083.734375
912.151367	9954.772461
911.006836	10094.500977
909.861328	9948.125000
908.716797	9884.768555
907.571289	9932.749023
906.424805	10011.255859
905.279297	9921.747070
904.132813	10041.660156
902.986328	10093.919922
901.839844	9963.028320
900.692383	10050.154297
899.545898	9938.941406
898.398438	9956.315430
897.250000	10025.957031
896.102539	10126.053711
894.954102	9951.782227
893.805664	10117.148438
892.656250	10016.945313
891.507813	10025.571289
890.358398	10060.294922
889.208984	10197.212891
888.058594	10229.706055
886.908203	10190.451172
885.758789	10027.337891
884.607422	10066.362305
883.457031	9894.659180
882.305664	9979.302734
881.154297	9957.513672
880.002930	9866.267578
878.850586	10096.267578
877.698242	9929.086914
876.545898	10052.669922
875.393555	9965.819336
874.240234	9855.155273
873.086914	10032.866211
871.933594	9885.389648
870.780273	9967.667969
869.625977	9963.253906
868.471680	9898.194336
867.317383	9885.133789
866.162109	10103.725586
865.007813	9934.783203
863.852539	9887.096680
862.696289	9919.479492
861.541016	9982.128906
860.384766	10038.261719
859.228516	10035.993164
858.072266	10033.725586
856.915039	10031.458984
855.757813	10074.562500
854.600586	9940.522461
853.442383	9890.764648
852.285156	9964.095703
851.126953	10026.599609
849.968750	10024.332031
848.809570	10181.726563
847.650391	10013.325195
846.491211	9909.697266
845.332031	9978.607422
844.171875	10099.220703
843.012695	9959.002930
841.851563	9967.521484
840.691406	9950.184570
839.530273	9823.016602
838.369141	9941.371094
837.208008	9982.172852
836.046875	9911.039063
834.884766	10068.022461
833.722656	10074.344727
832.560547	10104.322266
831.397461	9966.563477
830.234375	9975.052734
829.071289	10017.925781
827.908203	10103.753906
826.744141	10101.461914
825.580078	9968.151367
824.416016	9970.183594
823.251953	10139.669922
822.086914	9967.803711
820.921875	10102.877930
819.756836	10229.307617
818.590820	10006.057617
817.425781	10074.550781
816.259766	10132.292969
815.092773	10144.995117
813.926758	9969.108398
812.759766	10024.689453
811.592773	10073.818359
810.424805	10075.811523
809.257813	9936.495117
808.089844	10032.699219
806.920898	9904.154297
805.752930	9938.274414
804.583984	9983.072266
803.415039	9867.456055
802.246094	9914.386719
801.076172	10102.377930
799.906250	10053.060547
798.736328	9920.436523
797.566406	9977.990234
796.395508	9785.642578
795.224609	9990.526367
794.053711	10099.254883
792.881836	10180.188477
791.710938	10357.101563
790.538086	10184.082031
789.366211	10198.822266
788.194336	10087.751953
787.021484	10174.986328
785.848633	10211.029297
784.674805	10210.832031
783.500977	10272.412109
782.327148	10193.394531
781.153320	10080.342773
779.979492	10146.166016
778.804688	10167.262695
777.629883	10107.489258
776.454102	10028.594727
775.279297	10209.220703
774.103516	10123.958008
772.927734	10002.592773
771.750977	10021.563477
770.575195	10051.148438
769.398438	10104.088867
768.220703	10269.577148
767.043945	10205.647461
765.866211	10205.438477
764.688477	10158.532227
763.510742	10105.280273
762.332031	10153.887695
761.153320	10083.690430
759.974609	10365.545898
758.794922	10295.331055
757.616211	10394.718750
756.436523	10216.450195
755.255859	10527.675781
754.076172	10603.639648
752.895508	10681.685547
751.714844	10975.650391
750.533203	10928.686523
749.352539	11309.225586
748.170898	11795.376953
746.988281	11995.742188
745.806641	12430.756836
744.624023	13015.687500
743.441406	13949.129883
742.258789	15066.003906
741.075195	16520.421875
739.891602	18514.939453
738.708008	20419.841797
737.523438	22513.896484
736.339844	24478.222656
735.155273	26298.134766
733.969727	26887.111328
732.785156	26726.953125
731.599609	25881.447266
730.414063	24214.011719
729.227539	22159.464844
728.041992	20107.966797
726.855469	18044.765625
725.667969	16456.486328
724.481445	15079.543945
723.293945	14006.438477
722.106445	13030.660156
720.918945	12690.926758
719.730469	11989.435547
718.541992	11677.442383
717.353516	11453.926758
716.164063	11194.765625
714.975586	11007.199219
713.786133	10746.157227
712.595703	10424.297852
711.406250	10524.838867
710.215820	10337.595703
709.025391	10282.723633
707.833984	10118.712891
706.642578	10143.670898
705.451172	10122.453125
704.259766	10164.180664
703.068359	10193.303711
701.875977	10096.597656
700.683594	10016.708008
699.490234	10169.502930
698.297852	10165.067383
697.104492	10177.392578
695.910156	10214.845703
694.716797	10269.033203
693.522461	10511.612305
692.328125	10285.236328
691.132813	10617.678711
689.938477	10573.392578
688.743164	10612.790039
687.547852	10585.251953
686.351563	10584.904297
685.155273	10651.441406
683.958984	10580.028320
682.762695	10558.788086
681.565430	10439.386719
680.368164	10332.570313
679.170898	10371.943359
677.973633	10210.920898
676.775391	10356.728516
675.577148	10237.507813
674.378906	10164.229492
673.179688	10320.372070
671.980469	10343.010742
670.781250	10257.250000
669.581055	10252.800781
668.381836	10381.691406
667.181641	10431.370117
665.980469	10351.912109
664.780273	10349.524414
663.579102	10509.493164
662.377930	10403.016602
661.175781	10429.743164
659.973633	10595.821289
658.771484	10541.385742
657.569336	10674.093750
656.367188	10733.988281
655.164063	10808.401367
653.960938	10936.797852
652.756836	11009.050781
651.552734	10919.287109
650.348633	11319.551758
649.144531	11271.271484
647.939453	11202.258789
646.735352	11239.091797
645.529297	11192.935547
644.324219	11343.811523
643.118164	11328.750977
641.912109	11363.444336
640.706055	11257.198242
639.499023	11260.812500
638.292969	11384.566406
637.084961	11332.232422
635.877930	11389.656250
634.669922	11550.551758
633.461914	11363.695313
632.253906	11770.736328
631.044922	11532.199219
629.836914	11572.960938
628.626953	11863.883789
627.417969	11604.816406
626.208008	11476.067383
624.998047	11481.676758
623.788086	11249.729492
622.577148	11242.996094
621.366211	10982.303711
620.155273	10905.449219
618.944336	10876.096680
617.732422	10855.009766
616.520508	10609.084961
615.308594	10654.062500
614.095703	10630.978516
612.882813	10521.325195
611.669922	10364.321289
610.457031	10205.328125
609.243164	10205.025391
608.029297	10163.532227
606.815430	10266.188477
605.600586	10066.192383
604.385742	10098.847656
603.170898	9905.154297
601.955078	10046.857422
600.740234	9929.359375
599.524414	10208.750977
598.307617	10103.602539
597.091797	10019.054688
595.875000	9918.106445
594.658203	9911.700195
593.440430	10049.059570
592.222656	9993.345703
591.004883	9986.923828
589.787109	9808.109375
588.568359	9963.829102
587.349609	9941.005859
586.130859	9799.240234
584.912109	10143.491211
583.692383	10032.492188
582.472656	10146.987305
581.251953	9919.244141
580.032227	10166.865234
578.811523	10158.364258
577.589844	10242.007813
576.369141	9948.943359
575.147461	10073.527344
573.925781	10128.484375
572.703125	10226.374023
571.481445	10123.787109
570.258789	10311.599609
569.035156	10278.543945
567.812500	10394.699219
566.588867	10384.115234
565.365234	10442.991211
564.140625	10424.230469
562.916992	10393.225586
561.692383	10517.382813
560.466797	10576.170898
559.242188	10312.537109
558.016602	10306.064453
556.791016	10297.554688
555.564453	10346.141602
554.337891	10227.541992
553.111328	10276.121094
551.884766	10082.199219
550.657227	10379.322266
549.429688	10271.005859
548.202148	10103.688477
546.974609	10260.131836
545.746094	10339.161133
544.517578	10410.014648
543.288086	10289.607422
542.058594	10177.391602
540.829102	10480.036133
539.599609	10323.102539
538.370117	10290.219727
537.139648	10365.045898
535.909180	10332.166992
534.677734	10246.497070
533.446289	10365.951172
532.214844	10268.130859
530.983398	10143.970703
529.750977	10167.995117
528.519531	10165.633789
527.286133	9990.877930
526.053711	10041.279297
524.820313	10087.601563
523.586914	10243.348633
522.353516	10192.338867
521.119141	10161.610352
519.884766	10047.855469
518.650391	10027.298828
517.415039	9952.090820
516.179688	9980.139648
514.944336	9880.694336
513.708984	9886.492188
