#Wave		#Intensity
1585.210938	5539.778320
1584.209961	5564.754883
1583.208984	5413.774414
1582.208008	5442.611816
1581.206055	5541.328125
1580.204102	5580.109375
1579.202148	5638.834961
1578.200195	5445.586914
1577.198242	5491.845215
1576.195313	5535.590820
1575.192383	5539.430176
1574.189453	5396.211914
1573.186523	5365.190430
1572.182617	5476.194336
1571.178711	5499.969238
1570.174805	5409.175293
1569.170898	5363.237305
1568.166992	5434.318359
1567.162109	5380.926758
1566.158203	5389.765625
1565.153320	5485.675293
1564.147461	5394.995605
1563.142578	5373.983887
1562.136719	5467.350098
1561.130859	5491.075684
1560.125000	5393.013672
1559.119141	5511.165039
1558.113281	5629.266602
1557.106445	5598.296387
1556.099609	5636.868652
1555.092773	5675.424316
1554.084961	5644.463379
1553.078125	5692.927734
1552.070313	5776.107910
1551.062500	5621.112793
1550.054688	5664.591309
1549.045898	5772.520996
1548.038086	5860.573242
1547.029297	5886.624023
1546.020508	5910.186035
1545.011719	5958.513184
1544.001953	5991.958496
1542.992188	5948.616699
1541.982422	5935.005371
1540.972656	5943.678223
1539.962891	5826.123535
1538.952148	6072.364746
1537.942383	5925.143555
1536.931641	6047.589355
1535.919922	5811.408203
1534.909180	5928.881348
1533.897461	5900.462891
1532.886719	6040.111328
1531.874023	5801.654785
1530.862305	5948.676758
1529.850586	5858.529785
1528.837891	5788.174805
1527.825195	5749.943359
1526.812500	5610.525879
1525.799805	5601.960938
1524.786133	5526.781738
1523.772461	5525.637207
1522.758789	5497.363770
1521.745117	5508.554199
1520.731445	5500.018066
1519.716797	5567.892090
1518.702148	5490.347656
1517.687500	5464.573242
1516.672852	5433.882813
1515.657227	5550.968262
1514.642578	5507.960938
1513.626953	5457.586426
1512.610352	5577.054199
1511.594727	5551.292480
1510.579102	5510.779785
1509.562500	5482.582520
1508.545898	5432.263672
1507.529297	5595.867676
1506.511719	5402.974121
1505.494141	5529.651367
1504.477539	5548.163086
1503.458984	5485.598633
1502.441406	5396.042480
1501.423828	5586.460449
1500.405273	5396.262207
1499.386719	5515.417969
1498.368164	5526.545898
1497.348633	5402.723145
1496.330078	5541.427246
1495.310547	5501.038574
1494.291016	5509.706543
1493.271484	5611.528809
1492.250977	5546.639648
1491.231445	5663.114258
1490.210938	5532.090820
1489.190430	5543.191895
1488.168945	5480.818359
1487.148438	5408.676758
1486.126953	5564.225586
1485.105469	5430.909668
1484.083984	5640.221191
1483.061523	5543.641113
1482.040039	5581.626465
1481.017578	5560.906250
1479.995117	5650.215332
1478.971680	5609.933105
1477.949219	5613.657715
1476.925781	5646.701172
1475.902344	5601.558105
1474.878906	5568.645508
1473.855469	5660.282227
1472.831055	5773.853027
1471.806641	5860.526855
1470.782227	5886.155273
1469.757813	5772.700684
1468.733398	5973.969238
1467.708008	5984.924316
1466.682617	5961.737793
1465.657227	6058.014160
1464.631836	6241.994141
1463.605469	6321.113770
1462.579102	6385.583008
1461.552734	6386.693359
1460.526367	6507.133301
1459.500000	6571.522461
1458.472656	6587.198242
1457.445313	6622.337891
1456.417969	6696.395020
1455.390625	6597.693848
1454.362305	6547.678711
1453.334961	6412.571777
1452.306641	6452.571777
1451.277344	6446.370605
1450.249023	6445.031738
1449.219727	6173.991211
1448.191406	6172.708984
1447.162109	5979.556641
1446.131836	5968.601563
1445.102539	6042.621582
1444.072266	6002.530762
1443.041992	5853.253418
1442.011719	5849.610840
1440.981445	5768.347168
1439.950195	5781.699707
1438.918945	5664.112305
1437.887695	5667.783691
1436.856445	5778.095703
1435.825195	5730.854004
1434.792969	5557.651367
1433.760742	5638.850586
1432.728516	5615.882813
1431.696289	5733.353027
1430.663086	5574.816895
1429.629883	5508.312988
1428.596680	5560.399902
1427.563477	5581.016113
1426.530273	5507.295410
1425.496094	5520.658691
1424.461914	5461.486328
1423.427734	5651.305176
1422.393555	5546.213379
1421.358398	5436.332520
1420.323242	5473.851563
1419.288086	5320.558105
1418.252930	5379.816895
1417.217773	5566.999512
1416.181641	5466.881836
1415.145508	5612.944824
1414.109375	5486.319336
1413.073242	5429.697754
1412.036133	5525.032227
1411.000000	5721.593262
1409.962891	5505.856445
1408.924805	5490.249023
1407.887695	5708.380371
1406.849609	5545.780273
1405.812500	5689.141602
1404.773438	5914.318359
1403.735352	5867.341309
1402.697266	5928.703125
1401.658203	5888.961426
1400.619141	5842.018066
1399.580078	5965.891602
1398.540039	5849.202637
1397.500977	5915.312012
1396.460938	5882.824707
1395.420898	5987.356445
1394.380859	5954.867188
1393.339844	5783.041016
1392.298828	5858.701172
1391.257813	5828.659668
1390.216797	5733.801270
1389.175781	5917.449707
1388.133789	5786.610352
1387.091797	5742.209961
1386.049805	5916.144531
1385.007813	5864.539063
1383.964844	5942.451172
1382.922852	5967.583984
1381.879883	6014.279297
1380.835938	6048.971680
1379.792969	6105.214355
1378.749023	6058.422852
1377.706055	6145.774902
1376.661133	6070.258789
1375.617188	6119.266113
1374.573242	6015.063477
1373.528320	6135.853027
1372.483398	6203.955566
1371.438477	6274.420898
1370.392578	6093.740723
1369.347656	6113.985840
1368.301758	6234.626953
1367.255859	6063.627441
1366.208984	5995.450684
1365.163086	5924.913086
1364.116211	6114.759766
1363.069336	6082.435547
1362.022461	6255.455566
1360.974609	6101.373535
1359.927734	6243.291016
1358.879883	6122.680176
1357.832031	6326.558105
1356.783203	6182.128418
1355.735352	6166.526367
1354.686523	6217.684570
1353.637695	6144.875000
1352.588867	6260.358398
1351.539063	6304.315918
1350.490234	6350.636719
1349.440430	6501.727539
1348.390625	6483.696777
1347.339844	6529.949707
1346.290039	6633.304688
1345.239258	6624.774902
1344.188477	6858.915527
1343.137695	6819.419922
1342.085938	6863.173340
1341.034180	7009.144531
1339.982422	7214.480957
1338.930664	7013.333008
1337.878906	6964.339355
1336.826172	7219.442383
1335.773438	7203.676270
1334.720703	7138.049805
1333.667969	7236.263672
1332.614258	7037.734863
1331.561523	7086.092285
1330.507813	7018.170898
1329.453125	6824.555664
1328.399414	6811.264160
1327.344727	6741.070801
1326.290039	6654.312012
1325.235352	6726.386719
1324.180664	6537.773438
1323.125000	6595.626953
1322.070313	6577.659668
1321.014648	6609.430176
1319.958008	6487.291504
1318.902344	6476.458496
1317.845703	6325.998047
1316.789063	6454.804199
1315.732422	6354.089355
1314.675781	6381.133789
1313.618164	6209.537109
1312.560547	6177.496094
1311.502930	6067.467773
1310.445313	6146.537109
1309.386719	6083.813965
1308.329102	5891.198242
1307.270508	5960.807129
1306.210938	5895.799805
1305.152344	5837.901855
1304.092773	5697.422363
1303.033203	5738.695313
1301.973633	5761.077148
1300.914063	5703.254395
1299.853516	5659.604980
1298.792969	5681.987793
1297.732422	5782.147949
1296.671875	5667.807617
1295.611328	5668.968262
1294.549805	5592.390137
1293.488281	5614.761719
1292.426758	5441.684082
1291.364258	5504.098633
1290.302734	5552.364258
1289.240234	5727.681641
1288.177734	5622.953125
1287.114258	5586.482422
1286.051758	5582.950195
1284.988281	5614.687500
1283.924805	5644.060547
1282.861328	5729.825684
1281.796875	5662.822266
1280.732422	5633.434570
1279.667969	5615.802246
1278.603516	5551.212402
1277.539063	5777.768066
1276.473633	5933.810547
1275.408203	5730.735840
1274.342773	5790.525391
1273.277344	5798.683105
1272.210938	5830.289063
1271.145508	5904.086914
1270.079102	5771.558594
1269.011719	5639.085449
1267.945313	5806.606445
1266.877930	5681.209473
1265.810547	5684.690430
1264.743164	5589.814941
1263.674805	5541.804688
1262.607422	5439.976563
1261.539063	5356.913574
1260.470703	5407.252930
1259.401367	5361.659668
1258.333008	5367.539063
1257.263672	5471.624023
1256.194336	5344.221680
1255.125000	5422.556152
1254.054688	5281.196777
1252.985352	5226.340332
1251.915039	5320.999512
1250.843750	5242.804199
1249.773438	5176.315430
1248.702148	5354.959961
1247.630859	5132.107910
1246.559570	5184.684082
1245.488281	5216.242188
1244.416016	5180.148438
1243.343750	5137.074219
1242.271484	5068.372559
1241.199219	5146.544434
1240.125977	5143.119629
1239.053711	5218.911133
1237.980469	5126.955566
1236.906250	5142.166504
1235.833008	5120.117188
1234.758789	5230.766113
1233.684570	5124.919922
1232.610352	5079.617676
1231.536133	5164.612793
1230.460938	5233.290039
1229.385742	5136.833496
1228.310547	5110.165039
1227.235352	5204.377441
1226.159180	5173.057129
1225.083008	5083.664551
1224.006836	5101.164063
1222.930664	5211.553711
1221.853516	5194.188477
1220.777344	5144.330078
1219.700195	5089.851074
1218.622070	5223.351563
1217.544922	5152.638184
1216.466797	5153.857910
1215.388672	5203.774902
1214.310547	5214.256348
1213.232422	5145.921387
1212.153320	5309.364258
1211.074219	5238.720215
1209.995117	5186.638184
1208.916016	5287.433594
1207.835938	5316.405273
1206.755859	5264.338867
1205.675781	5166.003418
1204.595703	5162.584961
1203.514648	5422.909668
1202.434570	5206.637695
1201.353516	5221.711426
1200.271484	5227.530273
1199.190430	5321.185059
1198.108398	5266.891602
1197.026367	5152.546875
1195.944336	5169.924316
1194.862305	5238.104004
1193.779297	5133.073730
1192.696289	5104.270996
1191.613281	5223.197754
1190.530273	5051.316895
1189.446289	5160.974609
1188.362305	5129.882324
1187.278320	5031.926270
1186.194336	5088.487305
1185.109375	5073.565430
1184.024414	5010.251953
1182.939453	5004.568848
1181.854492	4973.547363
1180.768555	4960.964355
1179.683594	4955.293945
1178.597656	5007.179688
1177.510742	4870.306641
1176.424805	4908.380371
1175.337891	4983.247559
1174.250977	4903.971191
1173.164063	4806.330566
1172.077148	4945.547852
1170.989258	4815.758301
1169.901367	4761.864258
1168.813477	4972.228516
1167.724609	4856.298828
1166.636719	4933.342285
1165.547852	4913.911133
1164.458984	4972.542480
1163.369141	5001.310059
1162.280273	4862.549316
1161.190430	4900.504395
1160.100586	4885.686523
1159.010742	4960.311523
1157.919922	4899.631348
1156.829102	4932.959473
1155.738281	4998.357910
1154.647461	4949.163574
1153.555664	4929.770508
1152.464844	4999.706543
1151.373047	5021.526367
1150.280273	4963.210449
1149.188477	4994.183105
1148.095703	4970.222168
1147.002930	4985.164551
1145.910156	5089.305176
1144.817383	5037.896484
1143.723633	4933.922852
1142.629883	5035.720703
1141.536133	4872.372559
1140.441406	5083.812012
1139.347656	4943.367188
1138.252930	4965.137207
1137.158203	4945.796875
1136.062500	4819.168945
1134.967773	4884.316406
1133.872070	4846.749512
1132.776367	4916.424805
1131.679688	4910.798828
1130.583984	4804.837402
1129.487305	5024.949707
1128.390625	4930.405273
1127.292969	4874.643555
1126.196289	4878.144531
1125.098633	4988.707520
1124.000977	4841.869629
1122.903320	4808.942871
1121.804688	4880.747559
1120.706055	5050.387695
1119.607422	4871.805664
1118.508789	4895.773926
1117.409180	4894.711914
1116.310547	4850.444336
1115.210938	4710.708008
1114.110352	4841.520508
1113.010742	4897.283203
1111.910156	4871.227539
1110.809570	4947.402344
1109.708984	4866.841309
1108.607422	4979.311523
1107.506836	4941.909180
1106.405273	4809.200684
1105.303711	4855.806152
1104.201172	4807.110840
1103.098633	4865.035645
1101.996094	4707.514160
1100.893555	4860.652832
1099.791016	4800.664063
1098.687500	4733.902344
1097.583984	4841.622070
1096.480469	4867.750000
1095.376953	4907.453613
1094.272461	4831.668457
1093.167969	4841.934570
1092.063477	4641.722656
1090.958008	4805.885742
1089.853516	4736.973633
1088.748047	4821.885254
1087.642578	4895.453125
1086.536133	4889.864258
1085.430664	4904.619629
1084.324219	4871.914063
1083.217773	4906.999023
1082.110352	4928.515625
1081.003906	4929.698242
1079.896484	5014.416504
1078.789063	5096.839355
1077.680664	4942.268066
1076.573242	4911.857910
1075.464844	4955.900391
1074.356445	4923.243652
1073.247070	4942.461426
1072.138672	4880.515625
1071.029297	4971.854004
1069.919922	4873.875488
1068.809570	4877.315430
1067.700195	4846.969238
1066.589844	4908.959961
1065.479492	4806.576172
1064.368164	4936.072754
1063.257813	4948.494629
1062.146484	4812.420898
1061.035156	4743.886719
1059.922852	4781.078613
1058.811523	4764.292969
1057.699219	4799.215332
1056.586914	4732.989746
1055.473633	4644.323730
1054.361328	4746.640137
1053.248047	4714.157227
1052.134766	4827.639648
1051.021484	4745.763672
1049.907227	4845.722168
1048.792969	4653.924316
1047.678711	4708.989258
1046.564453	4743.843262
1045.449219	4603.769531
1044.333984	4757.454590
1043.218750	4628.645996
1042.103516	4712.786621
1040.987305	4689.346680
1039.871094	4712.956543
1038.754883	4745.513672
1037.638672	4836.270020
1036.521484	4716.565430
1035.404297	4800.573242
1034.287109	4736.866699
1033.169922	4648.580078
1032.051758	4750.438965
1030.933594	4769.518555
1029.815430	4699.166016
1028.697266	4756.243652
1027.578125	4779.777344
1026.458984	4832.343262
1025.339844	4690.562012
1024.220703	4707.393555
1023.100586	4768.870117
1021.980469	4747.729980
1020.860352	4893.971680
1019.740234	4741.175293
1018.619141	4802.587891
1017.498047	4803.759277
1016.376953	4860.670898
1015.255859	4761.515137
1014.133789	4758.235840
1013.011719	4737.132324
1011.889648	4718.265137
1010.767578	4710.541992
1009.644531	4696.141602
1008.521484	4744.081543
1007.398438	4758.613770
1006.274414	4770.914063
1005.151367	4765.410156
1004.027344	4655.368652
1002.902344	4769.975586
1001.778320	4722.231934
1000.653320	4710.074219
999.528320	4686.809570
998.403320	4652.445801
997.278320	4793.580078
996.152344	4810.286133
995.026367	4802.560547
993.900391	4686.065918
992.773438	4753.828125
991.646484	4683.991211
990.519531	4838.238770
989.392578	4903.703125
988.265625	4858.269043
987.137695	4868.276855
986.009766	4825.086426
984.881836	4852.823730
983.752930	4947.010254
982.624023	4875.035645
981.495117	4858.453613
980.366211	4737.823242
979.236328	4831.950195
978.106445	4786.618652
976.976563	4708.120117
975.846680	4906.152344
974.715820	4776.796875
973.585938	4771.313965
972.454102	4794.569824
971.323242	4736.044434
970.191406	4681.963867
969.060547	4689.759277
967.927734	4651.171875
966.795898	4800.284668
965.663086	4748.443848
964.530273	4747.387695
963.397461	4845.627441
962.264648	4674.681152
961.130859	4631.734863
959.997070	4725.522949
958.863281	4821.473633
957.729492	4873.299316
956.594727	4728.978516
955.459961	4899.769531
954.325195	4700.440430
953.189453	4719.212402
952.053711	4689.539063
950.917969	4811.759766
949.782227	4804.084961
948.646484	4752.409668
947.509766	4698.557129
946.373047	4739.293945
945.235352	4718.448242
944.098633	4811.919434
942.960938	4657.003906
941.823242	4761.432617
940.685547	4786.730469
939.546875	4752.717773
938.408203	4753.852539
937.269531	4733.033203
936.129883	4832.936035
934.991211	4739.695801
933.851563	4780.318848
932.711914	4739.770996
931.571289	4828.617188
930.431641	4770.537109
929.291016	4830.841797
928.149414	4820.996094
927.008789	4848.398926
925.867188	4729.033691
924.725586	4846.229492
923.583984	4748.811035
922.441406	4793.715332
921.299805	4696.351563
920.157227	4749.998047
919.013672	4659.249023
917.871094	4677.888184
916.727539	4744.620117
915.583984	4680.164063
914.439453	4703.155273
913.295898	4597.221191
912.151367	4674.832520
911.006836	4643.208496
909.861328	4526.440430
908.716797	4601.831055
907.571289	4620.441406
906.424805	4645.589355
905.279297	4598.733887
904.132813	4647.866211
902.986328	4577.044434
901.839844	4547.675293
900.692383	4622.939941
899.545898	4641.513672
898.398438	4655.721680
897.250000	4602.399902
896.102539	4614.431641
894.954102	4589.445801
893.805664	4684.187500
892.656250	4657.020020
891.507813	4586.350586
890.358398	4533.114258
889.208984	4556.016602
888.058594	4624.566406
886.908203	4645.263184
885.758789	4600.752930
884.607422	4627.962891
883.457031	4648.643555
882.305664	4519.462402
881.154297	4607.466797
880.002930	4589.062988
878.850586	4679.181641
877.698242	4558.787598
876.545898	4536.066895
875.393555	4530.706543
874.240234	4562.210449
873.086914	4537.335449
871.933594	4495.132324
870.780273	4554.791016
869.625977	4542.931641
868.471680	4585.224609
867.317383	4558.205078
866.162109	4537.691895
865.007813	4502.036621
863.852539	4555.119141
862.696289	4536.782715
861.541016	4583.343750
860.384766	4571.496094
859.228516	4492.631348
858.072266	4537.007813
856.915039	4499.245117
855.757813	4606.254883
854.600586	4436.730469
853.442383	4560.981445
852.285156	4490.859863
851.126953	4610.724609
849.968750	4478.038574
848.809570	4617.269531
847.650391	4557.982422
846.491211	4449.119629
845.332031	4409.302246
844.171875	4535.487793
843.012695	4551.702148
841.851563	4585.145996
840.691406	4612.112305
839.530273	4587.376953
838.369141	4480.830078
837.208008	4430.302246
836.046875	4508.931152
834.884766	4557.399414
833.722656	4498.282227
832.560547	4501.563965
831.397461	4532.797363
830.234375	4475.875000
829.071289	4474.859375
827.908203	4508.225586
826.744141	4496.460938
825.580078	4598.537109
824.416016	4573.872559
823.251953	4517.015625
822.086914	4541.747070
820.921875	4660.885742
819.756836	4520.375977
818.590820	4457.146484
817.425781	4507.600586
816.259766	4412.242676
815.092773	4647.020508
813.926758	4562.388672
812.759766	4552.781738
811.592773	4603.154785
810.424805	4516.447754
809.257813	4521.843750
808.089844	4512.253418
806.920898	4519.787109
805.752930	4585.085449
804.583984	4466.393066
803.415039	4529.534180
802.246094	4513.536621
801.076172	4414.178711
799.906250	4584.144531
798.736328	4497.634766
797.566406	4381.258301
796.395508	4534.028809
795.224609	4475.346191
794.053711	4544.771484
792.881836	4494.648926
791.710938	4540.566895
790.538086	4530.999023
789.366211	4566.223145
788.194336	4573.710938
787.021484	4704.838867
785.848633	4639.827148
784.674805	4662.207520
783.500977	4584.452637
782.327148	4532.291016
781.153320	4490.799316
779.979492	4542.996094
778.804688	4605.810547
777.629883	4540.922363
776.454102	4488.828125
775.279297	4560.118652
774.103516	4486.778320
772.927734	4438.982910
771.750977	4554.869629
770.575195	4432.705078
769.398438	4452.937500
768.220703	4519.888184
767.043945	4603.796387
765.866211	4606.990234
764.688477	4465.848633
763.510742	4628.226563
762.332031	4612.317383
761.153320	4668.532227
759.974609	4656.861816
758.794922	4761.802734
757.616211	4807.345703
756.436523	4952.467285
755.255859	4985.232910
754.076172	5155.665039
752.895508	5385.314453
751.714844	5623.327148
750.533203	5895.098145
749.352539	6264.091797
748.170898	6330.361816
746.988281	6658.895508
745.806641	6858.275391
744.624023	6829.218262
743.441406	6943.914063
742.258789	7181.130859
741.075195	7113.986328
739.891602	7397.526367
738.708008	7374.711914
737.523438	7516.596680
736.339844	7715.410645
735.155273	7711.530762
733.969727	7720.312500
732.785156	7600.411621
731.599609	7212.724121
730.414063	6949.615234
729.227539	6526.417969
728.041992	6219.328125
726.855469	5882.879883
725.667969	5788.840820
724.481445	5378.932129
723.293945	5213.460938
722.106445	4995.437012
720.918945	4802.768555
719.730469	4765.895020
718.541992	4800.562988
717.353516	4654.340820
716.164063	4598.601074
714.975586	4469.309570
713.786133	4396.823730
712.595703	4402.117188
711.406250	4373.795410
710.215820	4513.509277
709.025391	4438.978516
707.833984	4389.673828
706.642578	4369.774902
705.451172	4410.737305
704.259766	4430.701660
703.068359	4364.663574
701.875977	4372.047363
700.683594	4347.980957
699.490234	4497.888184
698.297852	4457.039551
697.104492	4426.684082
695.910156	4666.532227
694.716797	4567.039551
693.522461	4729.283691
692.328125	4709.357422
691.132813	4683.162109
689.938477	4715.557129
688.743164	4605.708008
687.547852	4579.553711
686.351563	4637.037109
685.155273	4673.591797
683.958984	4559.672363
682.762695	4596.227539
681.565430	4595.168457
680.368164	4424.962891
679.170898	4411.416504
677.973633	4473.017578
676.775391	4428.164063
675.577148	4495.991211
674.378906	4442.809082
673.179688	4533.540039
671.980469	4472.033691
670.781250	4512.689941
669.581055	4509.565430
668.381836	4450.189453
667.181641	4492.904297
665.980469	4533.517090
664.780273	4465.847656
663.579102	4431.513184
662.377930	4486.678223
661.175781	4471.079102
659.973633	4457.566895
658.771484	4481.492676
657.569336	4513.723633
656.367188	4508.524414
655.164063	4536.577637
653.960938	4527.219238
652.756836	4509.556641
651.552734	4606.120117
650.348633	4588.446289
649.144531	4595.689453
647.939453	4723.293945
646.735352	4753.324707
645.529297	4735.632324
644.324219	4728.316406
643.118164	4766.617188
641.912109	4657.727051
640.706055	4654.578125
639.499023	4570.625977
638.292969	4646.212402
637.084961	4605.790527
635.877930	4586.091309
634.669922	4674.040527
633.461914	4590.179688
632.253906	4568.427734
631.044922	4430.846680
629.836914	4436.025879
628.626953	4459.811523
627.417969	4452.578613
626.208008	4379.215820
624.998047	4450.518555
623.788086	4383.387207
622.577148	4427.807617
621.366211	4463.948242
620.155273	4357.638184
618.944336	4404.096680
617.732422	4512.432129
616.520508	4288.603516
615.308594	4291.735352
614.095703	4397.958984
612.882813	4236.152832
611.669922	4210.440918
610.457031	4318.669434
609.243164	4210.551758
608.029297	4300.193848
606.815430	4192.129883
605.600586	4351.724121
604.385742	4299.265137
603.170898	4244.772461
601.955078	4278.759766
600.740234	4357.977051
599.524414	4225.374512
598.307617	4284.009766
597.091797	4235.748047
595.875000	4302.572266
594.658203	4276.924316
593.440430	4193.782715
592.222656	4172.278320
591.004883	4319.113770
589.787109	4186.763184
588.568359	4397.134766
587.349609	4281.237793
586.130859	4155.140137
584.912109	4156.227539
583.692383	4235.212402
582.472656	4203.488281
581.251953	4186.122070
580.032227	4185.151367
578.811523	4184.181152
577.589844	4207.781738
576.369141	4370.574707
575.147461	4349.095215
573.925781	4241.686523
572.703125	4392.083496
571.481445	4294.939941
570.258789	4437.075195
569.035156	4292.947754
567.812500	4420.710938
566.588867	4442.161621
565.365234	4441.131348
564.140625	4564.685547
562.916992	4398.233398
561.692383	4482.952637
560.466797	4426.807129
559.242188	4372.728027
558.016602	4388.033203
556.791016	4366.620117
555.564453	4371.724121
554.337891	4309.552246
553.111328	4333.009277
551.884766	4256.611816
550.657227	4165.988770
549.429688	4228.159180
548.202148	4190.526367
546.974609	4211.946777
545.746094	4247.604004
544.517578	4281.209961
543.288086	4190.706055
542.058594	4191.767090
540.829102	4270.096191
539.599609	4226.414063
538.370117	4262.016602
537.139648	4250.867676
535.909180	4237.691895
534.677734	4226.552734
533.446289	4215.418945
532.214844	4153.538086
530.983398	4193.166016
529.750977	4204.367188
528.519531	4168.903809
527.286133	4153.738770
526.053711	4118.303223
524.820313	4172.083008
523.586914	4288.667480
522.353516	4314.013672
521.119141	4234.004395
519.884766	4384.923828
518.650391	4203.689941
517.415039	4202.713867
516.179688	4195.666016
514.944336	4144.104492
513.708984	4195.740723
