#Wave		#Intensity
1585.210938	12420.792969
1584.209961	12553.167969
1583.208984	12270.888672
1582.208008	12365.714844
1581.206055	12507.925781
1580.204102	12462.910156
1579.202148	12490.268555
1578.200195	12659.804688
1577.198242	12642.217773
1576.195313	12370.300781
1575.192383	12317.877930
1574.189453	12474.845703
1573.186523	12559.480469
1572.182617	12554.387695
1571.178711	12417.277344
1570.174805	12317.579102
1569.170898	12382.254883
1568.166992	12439.436523
1567.162109	12533.925781
1566.158203	12578.608398
1565.153320	12518.783203
1564.147461	12605.734375
1563.142578	12600.637695
1562.136719	12575.651367
1561.130859	12893.712891
1560.125000	12965.600586
1559.119141	13146.787109
1558.113281	13285.666016
1557.106445	13469.193359
1556.099609	13488.752930
1555.092773	13870.777344
1554.084961	13964.709961
1553.078125	13969.263672
1552.070313	13916.748047
1551.062500	14186.736328
1550.054688	14104.435547
1549.045898	13999.851563
1548.038086	13778.792969
1547.029297	13924.654297
1546.020508	13649.184570
1545.011719	13626.538086
1544.001953	13289.316406
1542.992188	13259.323242
1541.982422	13221.914063
1540.972656	13038.464844
1539.962891	12926.866211
1538.952148	12884.597656
1537.942383	13047.685547
1536.931641	12678.913086
1535.919922	12760.368164
1534.909180	12846.734375
1533.897461	12510.365234
1532.886719	12428.690430
1531.874023	12633.671875
1530.862305	12416.132813
1529.850586	12458.019531
1528.837891	12393.707031
1527.825195	12573.834961
1526.812500	12437.941406
1525.799805	12228.069336
1524.786133	12371.108398
1523.772461	12329.078125
1522.758789	12521.362305
1521.745117	12412.741211
1520.731445	12373.191406
1519.716797	12414.995117
1518.702148	12370.532227
1517.687500	12333.477539
1516.672852	12202.835938
1515.657227	12301.280273
1514.642578	12510.482422
1513.626953	12259.259766
1512.610352	12419.159180
1511.594727	12389.520508
1510.579102	12330.370117
1509.562500	12431.122070
1508.545898	12335.099609
1507.529297	12460.393555
1506.511719	12443.064453
1505.494141	12177.521484
1504.477539	12214.312500
1503.458984	12310.046875
1502.441406	12381.179688
1501.423828	12452.282227
1500.405273	12528.264648
1499.386719	12466.759766
1498.368164	12373.375977
1497.348633	12655.424805
1496.330078	12530.150391
1495.310547	12775.260742
1494.291016	12804.489258
1493.271484	12765.063477
1492.250977	12784.477539
1491.231445	12757.323242
1490.210938	12766.928711
1489.190430	12771.631836
1488.168945	12695.515625
1487.148438	12673.295898
1486.126953	12580.094727
1485.105469	12362.110352
1484.083984	12780.423828
1483.061523	12679.916992
1482.040039	12765.341797
1481.017578	12911.866211
1479.995117	12796.722656
1478.971680	13036.066406
1477.949219	12845.182617
1476.925781	13231.020508
1475.902344	13201.404297
1474.878906	13264.611328
1473.855469	13296.046875
1472.831055	13561.840820
1471.806641	13578.554688
1470.782227	13568.416992
1469.757813	13929.141602
1468.733398	14057.977539
1467.708008	14645.260742
1466.682617	14673.920898
1465.657227	15070.681641
1464.631836	15462.401367
1463.605469	15568.849609
1462.579102	15952.993164
1461.552734	16159.163086
1460.526367	16294.621094
1459.500000	16038.020508
1458.472656	16044.428711
1457.445313	16415.902344
1456.417969	15643.577148
1455.390625	15778.998047
1454.362305	15447.365234
1453.334961	14816.761719
1452.306641	14825.841797
1451.277344	14584.548828
1450.249023	14297.180664
1449.219727	13876.294922
1448.191406	13776.243164
1447.162109	14004.112305
1446.131836	13566.548828
1445.102539	13476.333008
1444.072266	13556.058594
1443.041992	13555.668945
1442.011719	13213.181641
1440.981445	13200.733398
1439.950195	13171.313477
1438.918945	13090.985352
1437.887695	13202.202148
1436.856445	13235.813477
1435.825195	12978.626953
1434.792969	13232.734375
1433.760742	12815.789063
1432.728516	12943.895508
1431.696289	12863.726563
1430.663086	12657.714844
1429.629883	12773.670898
1428.596680	12833.925781
1427.563477	12594.178711
1426.530273	12543.185547
1425.496094	12540.576172
1424.461914	12453.349609
1423.427734	12561.947266
1422.393555	12467.500977
1421.358398	12305.440430
1420.323242	12428.493164
1419.288086	12503.191406
1418.252930	12336.393555
1417.217773	12611.451172
1416.181641	12389.185547
1415.145508	12608.614258
1414.109375	12437.104492
1413.073242	12603.363281
1412.036133	12328.225586
1411.000000	12730.726563
1409.962891	12858.248047
1408.924805	12976.075195
1407.887695	13067.347656
1406.849609	13336.854492
1405.812500	13647.195313
1404.773438	13834.591797
1403.735352	13814.855469
1402.697266	14288.583984
1401.658203	14461.287109
1400.619141	14484.740234
1399.580078	14419.174805
1398.540039	14849.085938
1397.500977	14636.790039
1396.460938	14664.990234
1395.420898	14851.816406
1394.380859	14543.525391
1393.339844	14487.634766
1392.298828	14484.612305
1391.257813	14224.620117
1390.216797	13991.147461
1389.175781	14060.245117
1388.133789	13946.906250
1387.091797	13936.796875
1386.049805	14161.800781
1385.007813	14405.898438
1383.964844	14661.883789
1382.922852	14740.339844
1381.879883	14993.749023
1380.835938	15247.051758
1379.792969	15370.859375
1378.749023	15829.995117
1377.706055	15960.812500
1376.661133	16084.390625
1375.617188	15896.685547
1374.573242	16245.218750
1373.528320	16277.719727
1372.483398	16181.006836
1371.438477	16180.015625
1370.392578	15858.552734
1369.347656	15929.360352
1368.301758	15823.234375
1367.255859	15504.434570
1366.208984	15157.091797
1365.163086	14981.908203
1364.116211	14768.578125
1363.069336	14729.666992
1362.022461	14580.942383
1360.974609	14589.826172
1359.927734	14302.768555
1358.879883	14371.357422
1357.832031	14413.673828
1356.783203	14248.470703
1355.735352	14286.024414
1354.686523	14356.939453
1353.637695	14616.125977
1352.588867	14667.875000
1351.539063	14729.131836
1350.490234	14933.286133
1349.440430	15287.394531
1348.390625	15748.501953
1347.339844	16161.803711
1346.290039	16229.818359
1345.239258	16852.248047
1344.188477	17212.714844
1343.137695	17454.099609
1342.085938	18137.707031
1341.034180	18423.968750
1339.982422	18522.318359
1338.930664	19255.175781
1337.878906	19091.937500
1336.826172	18864.625000
1335.773438	19197.927734
1334.720703	19250.888672
1333.667969	19242.097656
1332.614258	18976.960938
1331.561523	18885.171875
1330.507813	18534.804688
1329.453125	18409.933594
1328.399414	17881.939453
1327.344727	17584.164063
1326.290039	17063.675781
1325.235352	16844.408203
1324.180664	16793.476563
1323.125000	16560.140625
1322.070313	16473.757813
1321.014648	16311.628906
1319.958008	16275.051758
1318.902344	16238.488281
1317.845703	16071.774414
1316.789063	15666.151367
1315.732422	15520.916992
1314.675781	15347.360352
1313.618164	15192.792969
1312.560547	15009.919922
1311.502930	14874.396484
1310.445313	14968.153320
1309.386719	14457.032227
1308.329102	14172.891602
1307.270508	14236.031250
1306.210938	14107.891602
1305.152344	13963.279297
1304.092773	13835.248047
1303.033203	13671.875000
1301.973633	13440.154297
1300.914063	13668.469727
1299.853516	13677.377930
1298.792969	13443.442383
1297.732422	13457.106445
1296.671875	13291.657227
1295.611328	13196.961914
1294.549805	13180.042969
1293.488281	13031.240234
1292.426758	13212.155273
1291.364258	13065.760742
1290.302734	13086.539063
1289.240234	13069.656250
1288.177734	13036.310547
1287.114258	13346.400391
1286.051758	13331.822266
1284.988281	13291.385742
1283.924805	13274.472656
1282.861328	13363.325195
1281.796875	13647.166992
1280.732422	13865.108398
1279.667969	13984.310547
1278.603516	14108.157227
1277.539063	14393.944336
1276.473633	14818.096680
1275.408203	14908.831055
1274.342773	15076.951172
1273.277344	15080.797852
1272.210938	15178.451172
1271.145508	15079.103516
1270.079102	14632.846680
1269.011719	14545.372070
1267.945313	14357.173828
1266.877930	14248.708008
1265.810547	13959.932617
1264.743164	13514.378906
1263.674805	13408.499023
1262.607422	13199.667969
1261.539063	13250.696289
1260.470703	13018.587891
1259.401367	12620.486328
1258.333008	12517.241211
1257.263672	12675.928711
1256.194336	12411.405273
1255.125000	12263.858398
1254.054688	12046.269531
1252.985352	12041.375977
1251.915039	12176.632813
1250.843750	12167.041992
1249.773438	12164.458008
1248.702148	11977.461914
1247.630859	11855.892578
1246.559570	11706.373047
1245.488281	11829.859375
1244.416016	11834.341797
1243.343750	11925.100586
1242.271484	11826.979492
1241.199219	11812.810547
1240.125977	11780.003906
1239.053711	11835.745117
1237.980469	11742.381836
1236.906250	11833.038086
1235.833008	11718.757813
1234.758789	11758.166016
1233.684570	11690.496094
1232.610352	11971.888672
1231.536133	11799.511719
1230.460938	11796.999023
1229.385742	11843.319336
1228.310547	11824.522461
1227.235352	11928.925781
1226.159180	11865.961914
1225.083008	11891.313477
1224.006836	11877.164063
1222.930664	11795.668945
1221.853516	11802.441406
1220.777344	11774.387695
1219.700195	11908.812500
1218.622070	11850.580078
1217.544922	11922.290039
1216.466797	11873.356445
1215.388672	11750.235352
1214.310547	11752.363281
1213.232422	11724.356445
1212.153320	11960.553711
1211.074219	11763.371094
1209.995117	12027.254883
1208.916016	12149.749023
1207.835938	11996.644531
1206.755859	12017.230469
1205.675781	11959.113281
1204.595703	11706.641602
1203.514648	11905.415039
1202.434570	11826.538086
1201.353516	11992.823242
1200.271484	11948.640625
1199.190430	11846.686523
1198.108398	11703.176758
1197.026367	11656.770508
1195.944336	11705.096680
1194.862305	11744.162109
1193.779297	11413.757813
1192.696289	11549.827148
1191.613281	11362.706055
1190.530273	11295.658203
1189.446289	11277.086914
1188.362305	11426.905273
1187.278320	11318.375000
1186.194336	11292.891602
1185.109375	11163.687500
1184.024414	11200.471680
1182.939453	11085.166016
1181.854492	11202.576172
1180.768555	11105.742188
1179.683594	11061.911133
1178.597656	10981.262695
1177.510742	11059.462891
1176.424805	11061.689453
1175.337891	10914.371094
1174.250977	11146.643555
1173.164063	11077.557617
1172.077148	11015.397461
1170.989258	11075.094727
1169.901367	10794.630859
1168.813477	11162.240234
1167.724609	11072.544922
1166.636719	10925.469727
1165.547852	11008.079102
1164.458984	10874.854492
1163.369141	10867.922852
1162.280273	10957.373047
1161.190430	10936.659180
1160.100586	11012.291992
1159.010742	11042.025391
1157.919922	11016.718750
1156.829102	10892.855469
1155.738281	10927.175781
1154.647461	10755.265625
1153.555664	11140.089844
1152.464844	11098.752930
1151.373047	11103.228516
1150.280273	11206.141602
1149.188477	11313.586914
1148.095703	11301.992188
1147.002930	11111.952148
1145.910156	11308.550781
1144.817383	11344.985352
1143.723633	11411.125977
1142.629883	11244.081055
1141.536133	11312.498047
1140.441406	11310.053711
1139.347656	11335.022461
1138.252930	11257.204102
1137.158203	11202.252930
1136.062500	10893.924805
1134.967773	11220.233398
1133.872070	10955.388672
1132.776367	11048.836914
1131.679688	11051.008789
1130.583984	11016.691406
1129.487305	11023.426758
1128.390625	11039.275391
1127.292969	10902.427734
1126.196289	11150.695313
1125.098633	11248.509766
1124.000977	10906.732422
1122.903320	10945.354492
1121.804688	10974.852539
1120.706055	10826.811523
1119.607422	11147.583008
1118.508789	10792.542969
1117.409180	10801.574219
1116.310547	10992.521484
1115.210938	10926.478516
1114.110352	10667.256836
1113.010742	10803.565430
1111.910156	10833.028320
1110.809570	10714.828125
1109.708984	10960.044922
1108.607422	11075.733398
1107.506836	10796.379883
1106.405273	10812.191406
1105.303711	10927.833008
1104.201172	10675.914063
1103.098633	10573.797852
1101.996094	10655.399414
1100.893555	10489.851563
1099.791016	10770.895508
1098.687500	10578.198242
1097.583984	10612.146484
1096.480469	10505.641602
1095.376953	10442.209961
1094.272461	10439.936523
1093.167969	10747.782227
1092.063477	10605.125977
1090.958008	10605.078125
1089.853516	10460.251953
1088.748047	10401.430664
1087.642578	10428.558594
1086.536133	10548.362305
1085.430664	10577.705078
1084.324219	10451.114258
1083.217773	10494.019531
1082.110352	10536.904297
1081.003906	10505.248047
1079.896484	10611.326172
1078.789063	10464.546875
1077.680664	10541.249023
1076.573242	10624.684570
1075.464844	10457.693359
1074.356445	10507.280273
1073.247070	10444.106445
1072.138672	10525.232422
1071.029297	10403.481445
1069.919922	10482.325195
1068.809570	10556.628906
1067.700195	10475.489258
1066.589844	10414.651367
1065.479492	10432.634766
1064.368164	10545.144531
1063.257813	10428.069336
1062.146484	10241.298828
1061.035156	10281.794922
1059.922852	10445.958984
1058.811523	10592.063477
1057.699219	10322.246094
1056.586914	10486.291016
1055.473633	10506.462891
1054.361328	10333.433594
1053.248047	10492.874023
1052.134766	10297.467773
1051.021484	10248.066406
1049.907227	10306.417969
1048.792969	10315.376953
1047.678711	10111.203125
1046.564453	10353.465820
1045.449219	10286.162109
1044.333984	10389.276367
1043.218750	10346.648438
1042.103516	10330.930664
1040.987305	10384.673828
1039.871094	10351.032227
1038.754883	10548.074219
1037.638672	10507.692383
1036.521484	10368.833008
1035.404297	10444.883789
1034.287109	10525.375977
1033.169922	10252.378906
1032.051758	10415.627930
1030.933594	10558.680664
1029.815430	10498.232422
1028.697266	10381.932617
1027.578125	10672.377930
1026.458984	10381.830078
1025.339844	10547.063477
1024.220703	10488.913086
1023.100586	10647.350586
1021.980469	10602.593750
1020.860352	10598.025391
1019.740234	10705.015625
1018.619141	10794.112305
1017.498047	10749.359375
1016.376953	10474.968750
1015.255859	10771.367188
1014.133789	10470.347656
1013.011719	10713.137695
1011.889648	10505.825195
1010.767578	10775.225586
1009.644531	10652.603516
1008.521484	10463.249023
1007.398438	10474.291992
1006.274414	10641.096680
1005.151367	10543.081055
1004.027344	10498.490234
1002.902344	10505.064453
1001.778320	10542.760742
1000.653320	10624.895508
999.528320	10426.984375
998.403320	10475.779297
997.278320	10506.781250
996.152344	10497.793945
995.026367	10246.793945
993.900391	10468.729492
992.773438	10279.987305
991.646484	10424.154297
990.519531	10284.307617
989.392578	10368.526367
988.265625	10277.534180
987.137695	10332.895508
986.009766	10472.454102
984.881836	10483.428711
983.752930	10339.317383
982.624023	10458.845703
981.495117	10538.458984
980.366211	10361.220703
979.236328	10356.708008
978.106445	10369.900391
976.976563	10250.337891
975.846680	10482.531250
974.715820	10358.572266
973.585938	10245.722656
972.454102	10334.077148
971.323242	10393.662109
970.191406	10347.162109
969.060547	10278.591797
967.927734	10291.766602
966.795898	10329.223633
965.663086	10430.681641
964.530273	10426.155273
963.397461	10359.844727
962.264648	10549.468750
961.130859	10664.017578
959.997070	10855.693359
958.863281	10714.386719
957.729492	10705.388672
956.594727	10647.914063
955.459961	10698.417969
954.325195	10632.158203
953.189453	10568.128906
952.053711	10501.925781
950.917969	10563.418945
949.782227	10354.200195
948.646484	10391.495117
947.509766	10206.603516
946.373047	10164.741211
945.235352	10391.139648
944.098633	10336.064453
942.960938	10285.407227
941.823242	10434.721680
940.685547	10419.211914
939.546875	10487.166016
938.408203	10460.670898
937.269531	10688.839844
936.129883	10545.984375
934.991211	10530.462891
933.851563	10475.458008
932.711914	10767.022461
931.571289	10714.179688
930.431641	10696.438477
929.291016	10797.063477
928.149414	10827.518555
927.008789	10638.873047
925.867188	10551.067383
924.725586	10568.415039
923.583984	10445.632813
922.441406	10489.261719
921.299805	10397.188477
920.157227	10195.757813
919.013672	10313.784180
917.871094	9996.552734
916.727539	10029.295898
915.583984	10070.768555
914.439453	9893.672852
913.295898	9922.044922
912.151367	9954.772461
911.006836	9921.963867
909.861328	10079.135742
908.716797	10035.397461
907.571289	9934.931641
906.424805	9865.058594
905.279297	9950.107422
904.132813	9801.742188
902.986328	10039.405273
901.839844	9888.904297
900.692383	9891.042969
899.545898	10080.583984
898.398438	9949.780273
897.250000	9921.406250
896.102539	9906.111328
894.954102	10034.513672
893.805664	10010.491211
892.656250	10036.531250
891.507813	10038.625000
890.358398	10014.615234
889.208984	10053.682617
888.058594	10029.677734
886.908203	9790.484375
885.758789	9901.289063
884.607422	10101.126953
883.457031	9909.865234
882.305664	9746.922852
881.154297	9703.472656
880.002930	9675.238281
878.850586	9751.189453
877.698242	9705.595703
876.545898	9874.785156
875.393555	9644.831055
874.240234	9753.243164
873.086914	9644.818359
871.933594	9738.007813
870.780273	9664.304688
869.625977	9486.646484
868.471680	9748.747070
867.317383	9458.545898
866.162109	9410.948242
865.007813	9575.485352
863.852539	9547.356445
862.696289	9627.412109
861.541016	9605.771484
860.384766	9296.528320
859.228516	9549.543945
858.072266	9471.733398
856.915039	9417.728516
855.757813	9402.636719
854.600586	9532.274414
853.442383	9631.618164
852.285156	9689.894531
851.126953	9767.570313
849.968750	9510.706055
848.809570	9556.021484
847.650391	9530.130859
846.491211	9635.805664
845.332031	9702.621094
844.171875	9566.774414
843.012695	9648.660156
841.851563	9769.291992
840.691406	9611.977539
839.530273	9499.961914
838.369141	9435.366211
837.208008	9577.460938
836.046875	9618.335938
834.884766	9431.105469
833.722656	9530.076172
832.560547	9545.122070
831.397461	9325.779297
830.234375	9257.020508
829.071289	9370.983398
827.908203	9534.316406
826.744141	9330.209961
825.580078	9444.077148
824.416016	9495.617188
823.251953	9276.627930
822.086914	9456.964844
820.921875	9338.938477
819.756836	9454.815430
818.590820	9424.784180
817.425781	9381.899414
816.259766	9534.131836
815.092773	9450.513672
813.926758	9461.223633
812.759766	9261.964844
811.592773	9476.201172
810.424805	9356.263672
809.257813	9302.750977
808.089844	9309.198242
806.920898	9401.243164
805.752930	9227.938477
804.583984	9253.647461
803.415039	9345.639648
802.246094	9300.750977
801.076172	9283.669922
799.906250	9382.001953
798.736328	9155.518555
797.566406	9255.968750
796.395508	9443.935547
795.224609	9381.999023
794.053711	9426.825195
792.881836	9343.577148
791.710938	9328.645508
790.538086	9573.975586
789.366211	9443.828125
788.194336	9475.791016
787.021484	9678.282227
785.848633	9418.188477
784.674805	9712.222656
783.500977	9447.977539
782.327148	9479.899414
781.153320	9452.184570
779.979492	9224.368164
778.804688	9292.499023
777.629883	9290.377930
776.454102	9243.582031
775.279297	9258.487305
774.103516	9315.913086
772.927734	9458.349609
771.750977	9364.794922
770.575195	9222.407227
769.398438	9354.142578
768.220703	9216.069336
767.043945	9351.992188
765.866211	9360.469727
764.688477	9328.614258
763.510742	9188.546875
762.332031	9413.456055
761.153320	9326.458984
759.974609	9455.803711
758.794922	9491.803711
757.616211	9563.819336
756.436523	9508.652344
755.255859	9716.225586
754.076172	9932.174805
752.895508	10207.320313
751.714844	10348.955078
750.533203	10473.589844
749.352539	10608.747070
748.170898	11099.291016
746.988281	11576.916992
745.806641	12365.198242
744.624023	13140.431641
743.441406	14107.666016
742.258789	15983.193359
741.075195	17644.460938
739.891602	20130.904297
738.708008	22231.841797
737.523438	23831.412109
736.339844	25130.496094
735.155273	25415.974609
733.969727	25359.505859
732.785156	24317.941406
731.599609	22844.511719
730.414063	21049.154297
729.227539	19100.734375
728.041992	17155.312500
726.855469	15741.760742
725.667969	13960.207031
724.481445	12996.628906
723.293945	12094.555664
722.106445	11765.485352
720.918945	11104.034180
719.730469	10583.864258
718.541992	10446.798828
717.353516	10396.026367
716.164063	9846.936523
714.975586	9598.714844
713.786133	9661.663086
712.595703	9264.408203
711.406250	9453.448242
710.215820	9176.138672
709.025391	9255.920898
707.833984	9062.755859
706.642578	8949.433594
705.451172	9027.113281
704.259766	9033.428711
703.068359	8920.189453
701.875977	8842.648438
700.683594	8953.821289
699.490234	9119.436523
698.297852	9002.087891
697.104492	9100.575195
695.910156	9044.024414
694.716797	9240.874023
693.522461	9368.544922
692.328125	9213.595703
691.132813	9217.752930
689.938477	9374.627930
688.743164	9351.553711
687.547852	9290.848633
686.351563	9328.430664
685.155273	9303.290039
683.958984	9420.258789
682.762695	9328.252930
681.565430	9321.925781
680.368164	9303.071289
679.170898	9048.309570
677.973633	9027.439453
676.775391	9125.523438
675.577148	9179.750977
674.378906	9081.686523
673.179688	9110.872070
671.980469	9090.007813
670.781250	9102.501953
669.581055	9062.892578
668.381836	9094.136719
667.181641	9177.439453
665.980469	9287.775391
664.780273	9287.713867
663.579102	9044.117188
662.377930	9295.914063
661.175781	9412.360352
659.973633	9358.185547
658.771484	9624.291992
657.569336	9497.324219
656.367188	9727.936523
655.164063	9761.019531
653.960938	9958.220703
652.756836	10053.548828
651.552734	10204.902344
650.348633	10109.115234
649.144531	10210.567383
647.939453	10185.380859
646.735352	10172.654297
645.529297	10481.449219
644.324219	10333.860352
643.118164	10194.631836
641.912109	10395.416016
640.706055	10212.715820
639.499023	10199.996094
638.292969	10166.567383
637.084961	10298.829102
635.877930	10118.387695
634.669922	10128.467773
633.461914	9950.217773
632.253906	10101.025391
631.044922	9941.479492
629.836914	9887.478516
628.626953	10000.976563
627.417969	9787.817383
626.208008	9824.819336
624.998047	9744.032227
623.788086	9719.055664
622.577148	9669.307617
621.366211	9493.632813
620.155273	9384.094727
618.944336	9161.098633
617.732422	9097.080078
616.520508	9109.414063
615.308594	9105.243164
614.095703	8830.969727
612.882813	9024.756836
611.669922	9008.241211
610.457031	8775.387695
609.243164	8717.737305
608.029297	8672.468750
606.815430	8808.414063
605.600586	8616.990234
604.385742	8757.000000
603.170898	8707.647461
601.955078	8787.914063
600.740234	8685.104492
599.524414	8666.643555
598.307617	8773.585938
597.091797	8790.050781
595.875000	8533.229492
594.658203	8687.374023
593.440430	8677.146484
592.222656	8584.791016
591.004883	8597.170898
589.787109	8642.382813
588.568359	8747.076172
587.349609	8626.068359
586.130859	8804.549805
584.912109	8792.256836
583.692383	8659.021484
582.472656	9044.366211
581.251953	8958.259766
580.032227	8925.455078
578.811523	9113.854492
577.589844	9017.552734
576.369141	9052.310547
575.147461	8958.112305
573.925781	9029.697266
572.703125	9197.394531
571.481445	9266.843750
570.258789	9045.908203
569.035156	9133.757813
567.812500	9172.514648
566.588867	9260.292969
565.365234	9401.143555
564.140625	9339.734375
562.916992	9294.688477
561.692383	9363.981445
560.466797	9137.305664
559.242188	9259.654297
558.016602	9092.265625
556.791016	9218.646484
555.564453	9063.579102
554.337891	9098.169922
553.111328	8912.629883
551.884766	9047.083008
550.657227	8937.013672
549.429688	8920.682617
548.202148	8993.953125
546.974609	8763.862305
545.746094	8949.073242
544.517578	8957.169922
543.288086	8780.139648
542.058594	8826.914063
540.829102	8891.966797
539.599609	9089.127930
538.370117	8936.617188
537.139648	9068.652344
535.909180	8912.154297
534.677734	9103.032227
533.446289	8869.436523
532.214844	9039.934570
530.983398	8857.200195
529.750977	8788.182617
528.519531	8737.455078
527.286133	9005.175781
526.053711	8861.144531
524.820313	8800.296875
523.586914	8777.986328
522.353516	8850.921875
521.119141	8852.917969
519.884766	8800.228516
518.650391	8739.462891
517.415039	8700.994141
516.179688	8790.051758
514.944336	8836.574219
513.708984	8816.315430
