#Wave		#Intensity
1585.210938	5177.620117
1584.209961	5222.577637
1583.208984	5308.895020
1582.208008	5187.957520
1581.206055	5221.828125
1580.204102	5233.224121
1579.202148	5212.179688
1578.200195	5136.263672
1577.198242	5175.104004
1576.195313	5238.863281
1575.192383	5282.651855
1574.189453	5249.155762
1573.186523	5193.245117
1572.182617	5152.306641
1571.178711	5096.438965
1570.174805	5182.547852
1569.170898	5211.353516
1568.166992	5135.592773
1567.162109	5263.950195
1566.158203	5252.906738
1565.153320	5132.402832
1564.147461	5253.218750
1563.142578	5090.488281
1562.136719	5243.584473
1561.130859	5023.750488
1560.125000	5129.576172
1559.119141	5101.181641
1558.113281	5045.472656
1557.106445	5225.739258
1556.099609	5075.665039
1555.092773	5069.648438
1554.084961	5100.867188
1553.078125	5139.517578
1552.070313	5101.236328
1551.062500	5129.947754
1550.054688	5141.286133
1549.045898	5038.557617
1548.038086	5089.575684
1547.029297	5157.921875
1546.020508	5166.766602
1545.011719	5269.753906
1544.001953	5102.701172
1542.992188	5123.933594
1541.982422	5083.256348
1540.972656	5074.777344
1539.962891	4959.877441
1538.952148	5102.370117
1537.942383	5160.688965
1536.931641	5107.677734
1535.919922	5094.255371
1534.909180	5179.735840
1533.897461	5228.101563
1532.886719	5041.664063
1531.874023	5072.741699
1530.862305	4960.524414
1529.850586	5001.484863
1528.837891	5138.733398
1527.825195	5066.072754
1526.812500	5126.732422
1525.799805	5150.349121
1524.786133	5139.413574
1523.772461	5148.216309
1522.758789	5120.020996
1521.745117	5086.905762
1520.731445	5090.783203
1519.716797	5089.729004
1518.702148	5128.103027
1517.687500	5107.331055
1516.672852	5054.545410
1515.657227	5095.365234
1514.642578	5192.798340
1513.626953	5095.716309
1512.610352	5116.812012
1511.594727	5204.336426
1510.579102	4989.224121
1509.562500	5025.085449
1508.545898	5139.625000
1507.529297	5077.094238
1506.511719	5095.707520
1505.494141	5067.618164
1504.477539	5071.482910
1503.458984	4947.602051
1502.441406	5037.452637
1501.423828	5110.076660
1500.405273	5187.580566
1499.386719	5088.322754
1498.368164	5214.879883
1497.348633	5017.515137
1496.330078	5112.144531
1495.310547	5167.493652
1494.291016	5080.601563
1493.271484	5091.806641
1492.250977	5188.791992
1491.231445	5111.750977
1490.210938	5012.691895
1489.190430	5043.496094
1488.168945	4976.328613
1487.148438	5136.896484
1486.126953	5228.854492
1485.105469	5071.133301
1484.083984	5145.937500
1483.061523	5179.120605
1482.040039	5226.965820
1481.017578	5194.091797
1479.995117	5151.451172
1478.971680	5150.382813
1477.949219	5188.417480
1476.925781	5238.653320
1475.902344	5176.494629
1474.878906	5111.918945
1473.855469	5225.627441
1472.831055	5280.695313
1471.806641	5111.180176
1470.782227	5302.908691
1469.757813	5179.815918
1468.733398	5281.193848
1467.708008	5304.486816
1466.682617	5242.427734
1465.657227	5380.296875
1464.631836	5379.180176
1463.605469	5292.775391
1462.579102	5352.584961
1461.552734	5502.494629
1460.526367	5457.517090
1459.500000	5619.516113
1458.472656	5562.360840
1457.445313	5507.663086
1456.417969	5518.686035
1455.390625	5517.540527
1454.362305	5613.686035
1453.334961	5566.316895
1452.306641	5397.403809
1451.277344	5393.852539
1450.249023	5319.824707
1449.219727	5389.182617
1448.191406	5460.940430
1447.162109	5437.947754
1446.131836	5232.846680
1445.102539	5391.989746
1444.072266	5487.958496
1443.041992	5246.572754
1442.011719	5442.006348
1440.981445	5484.538574
1439.950195	5366.988770
1438.918945	5441.039551
1437.887695	5381.727539
1436.856445	5492.099121
1435.825195	5534.575195
1434.792969	5346.877441
1433.760742	5408.742676
1432.728516	5351.919434
1431.696289	5389.545410
1430.663086	5211.715332
1429.629883	5416.346191
1428.596680	5354.728027
1427.563477	5111.697754
1426.530273	5144.496094
1425.496094	5148.262207
1424.461914	5168.949707
1423.427734	5124.365723
1422.393555	5108.799316
1421.358398	5139.146484
1420.323242	5053.529297
1419.288086	5134.592285
1418.252930	5034.523438
1417.217773	5004.505859
1416.181641	5148.282227
1415.145508	5043.445313
1414.109375	5199.216309
1413.073242	5219.842773
1412.036133	5098.174316
1411.000000	5167.035156
1409.962891	5110.514648
1408.924805	5119.090820
1407.887695	5103.566406
1406.849609	5268.731934
1405.812500	5135.160645
1404.773438	5153.355469
1403.735352	5282.292480
1402.697266	5153.614746
1401.658203	5128.474609
1400.619141	5146.654297
1399.580078	5313.973633
1398.540039	5247.927734
1397.500977	5230.001465
1396.460938	5269.780273
1395.420898	5189.362305
1394.380859	5212.311035
1393.339844	5196.808105
1392.298828	5246.167969
1391.257813	5134.600098
1390.216797	5102.314453
1389.175781	5269.291016
1388.133789	5138.586426
1387.091797	5207.102051
1386.049805	5182.024414
1385.007813	5363.234863
1383.964844	5407.678711
1382.922852	5344.212402
1381.879883	5302.345703
1380.835938	5327.600586
1379.792969	5268.981934
1378.749023	5342.144531
1377.706055	5520.659180
1376.661133	5347.096191
1375.617188	5451.317871
1374.573242	5505.230957
1373.528320	5489.722168
1372.483398	5490.967285
1371.438477	5441.977539
1370.392578	5459.972168
1369.347656	5487.523438
1368.301758	5314.254395
1367.255859	5327.483398
1366.208984	5123.254883
1365.163086	5267.916992
1364.116211	5242.928711
1363.069336	5323.026367
1362.022461	5197.758301
1360.974609	5158.477539
1359.927734	5209.902344
1358.879883	5211.197754
1357.832031	5465.363770
1356.783203	5240.021973
1355.735352	5286.616211
1354.686523	5321.270020
1353.637695	5310.621094
1352.588867	5357.170410
1351.539063	5332.222168
1350.490234	5354.925293
1349.440430	5384.763672
1348.390625	5614.600586
1347.339844	5470.588379
1346.290039	5655.088379
1345.239258	5682.458008
1344.188477	5583.723633
1343.137695	5649.153320
1342.085938	5754.982422
1341.034180	5734.754395
1339.982422	5709.780273
1338.930664	5694.322754
1337.878906	5852.326172
1336.826172	5915.239258
1335.773438	5614.734863
1334.720703	5763.156250
1333.667969	5666.981934
1332.614258	5755.988770
1331.561523	5714.437500
1330.507813	5739.335938
1329.453125	5745.246582
1328.399414	5570.912109
1327.344727	5595.823730
1326.290039	5566.200195
1325.235352	5565.030273
1324.180664	5502.250488
1323.125000	5463.187988
1322.070313	5528.360840
1321.014648	5420.632813
1319.958008	5462.109863
1318.902344	5236.083984
1317.845703	5320.181152
1316.789063	5319.061523
1315.732422	5251.704590
1314.675781	5300.267090
1313.618164	5270.775879
1312.560547	5253.117676
1311.502930	5287.466309
1310.445313	5413.962402
1309.386719	5358.481445
1308.329102	5307.747559
1307.270508	5299.544434
1306.210938	5265.372070
1305.152344	5276.065918
1304.092773	5178.187500
1303.033203	5207.771484
1301.973633	5249.138672
1300.914063	5401.345215
1299.853516	5230.417969
1298.792969	5196.307617
1297.732422	5209.354492
1296.671875	5307.236328
1295.611328	5277.842285
1294.549805	5180.145508
1293.488281	5051.872559
1292.426758	5067.289063
1291.364258	5110.948730
1290.302734	5109.869629
1289.240234	4871.117676
1288.177734	5084.184570
1287.114258	4925.513184
1286.051758	4929.176270
1284.988281	4869.354492
1283.924805	5032.875000
1282.861328	4904.899902
1281.796875	5120.037109
1280.732422	5053.176758
1279.667969	5106.128906
1278.603516	4910.145996
1277.539063	5087.535156
1276.473633	4947.972168
1275.408203	5010.287109
1274.342773	4873.145020
1273.277344	5017.549805
1272.210938	5075.118652
1271.145508	5020.115234
1270.079102	5014.363770
1269.011719	4886.738770
1267.945313	4873.987305
1266.877930	4943.238281
1265.810547	4883.634277
1264.743164	4913.042480
1263.674805	4883.905762
1262.607422	4929.686035
1261.539063	4912.259277
1260.470703	4955.673828
1259.401367	4744.086426
1258.333008	4808.566406
1257.263672	4786.501953
1256.194336	4895.363281
1255.125000	4861.602051
1254.054688	4874.591309
1252.985352	4742.722656
1251.915039	4760.402344
1250.843750	4883.164063
1249.773438	4823.756348
1248.702148	4892.761719
1247.630859	4784.366211
1246.559570	4781.016113
1245.488281	4814.993164
1244.416016	4809.304688
1243.343750	4833.933105
1242.271484	4809.591797
1241.199219	4831.877930
1240.125977	4686.367676
1239.053711	4678.381348
1237.980469	4798.513184
1236.906250	4848.728027
1235.833008	4815.098633
1234.758789	4848.992188
1233.684570	4768.828613
1232.610352	4749.198242
1231.536133	4752.839844
1230.460938	4828.582520
1229.385742	4794.998047
1228.310547	4805.601074
1227.235352	4888.256348
1226.159180	4831.440430
1225.083008	4790.912109
1224.006836	4799.182617
1222.930664	4821.383789
1221.853516	4824.999512
1220.777344	4812.363281
1219.700195	4771.880371
1218.622070	4845.116699
1217.544922	4816.243652
1216.466797	4703.880859
1215.388672	4749.256348
1214.310547	4794.611816
1213.232422	4758.818359
1212.153320	4799.516602
1211.074219	4863.367188
1209.995117	4887.810059
1208.916016	4759.385254
1207.835938	4758.368164
1206.755859	4794.391113
1205.675781	4740.132324
1204.595703	4790.027344
1203.514648	4802.883789
1202.434570	4790.291504
1201.353516	4680.577637
1200.271484	4737.376953
1199.190430	4757.166992
1198.108398	4772.326172
1197.026367	4598.012695
1195.944336	4742.562012
1194.862305	4600.662598
1193.779297	4671.258789
1192.696289	4688.726563
1191.613281	4745.424316
1190.530273	4649.795898
1189.446289	4688.020020
1188.362305	4587.831055
1187.278320	4692.928223
1186.194336	4673.477051
1185.109375	4573.354492
1184.024414	4676.081543
1182.939453	4628.995605
1181.854492	4683.289551
1180.768555	4705.315918
1179.683594	4660.555176
1178.597656	4733.223633
1177.510742	4601.012695
1176.424805	4600.024414
1175.337891	4658.853516
1174.250977	4581.946777
1173.164063	4576.362793
1172.077148	4556.985840
1170.989258	4668.642090
1169.901367	4642.357910
1168.813477	4668.932129
1167.724609	4615.091797
1166.636719	4671.517090
1165.547852	4594.736816
1164.458984	4552.424805
1163.369141	4636.368652
1162.280273	4550.464844
1161.190430	4563.250488
1160.100586	4557.680664
1159.010742	4653.015625
1157.919922	4629.085449
1156.829102	4573.073730
1155.738281	4595.005859
1154.647461	4614.636719
1153.555664	4531.173828
1152.464844	4532.486816
1151.373047	4632.260742
1150.280273	4647.286621
1149.188477	4584.486328
1148.095703	4521.712402
1147.002930	4550.478027
1145.910156	4675.298828
1144.817383	4612.544922
1143.723633	4520.095215
1142.629883	4649.412598
1141.536133	4522.713867
1140.441406	4514.881836
1139.347656	4703.508789
1138.252930	4647.679199
1137.158203	4596.440430
1136.062500	4645.669922
1134.967773	4630.970703
1133.872070	4728.090820
1132.776367	4640.375000
1131.679688	4689.550781
1130.583984	4743.266113
1129.487305	4760.478516
1128.390625	4846.066406
1127.292969	4783.485840
1126.196289	4793.842285
1125.098633	4829.250977
1124.000977	4743.938965
1122.903320	4656.386719
1121.804688	4703.183105
1120.706055	4708.991699
1119.607422	4687.491699
1118.508789	4691.024902
1117.409180	4655.890137
1116.310547	4552.550293
1115.210938	4558.383301
1114.110352	4543.755859
1113.010742	4570.040039
1111.910156	4582.680176
1110.809570	4608.943359
1109.708984	4707.868652
1108.607422	4507.037598
1107.506836	4692.203125
1106.405273	4618.557617
1105.303711	4687.895020
1104.201172	4598.401855
1103.098633	4681.321289
1101.996094	4682.570801
1100.893555	4688.353516
1099.791016	4707.733398
1098.687500	4659.121094
1097.583984	4683.028809
1096.480469	4754.493652
1095.376953	4622.110352
1094.272461	4722.990234
1093.167969	4654.052246
1092.063477	4596.459961
1090.958008	4713.116699
1089.853516	4671.371094
1088.748047	4692.969727
1087.642578	4714.558594
1086.536133	4697.706055
1085.430664	4753.186523
1084.324219	4630.126465
1083.217773	4724.002930
1082.110352	4610.036621
1081.003906	4814.529297
1079.896484	4682.530273
1078.789063	4656.678223
1077.680664	4757.215332
1076.573242	4593.726563
1075.464844	4631.070801
1074.356445	4618.783203
1073.247070	4622.283691
1072.138672	4682.139160
1071.029297	4611.248047
1069.919922	4702.625488
1068.809570	4670.058105
1067.700195	4732.101074
1066.589844	4713.051758
1065.479492	4853.854004
1064.368164	4771.762207
1063.257813	4817.975098
1062.146484	4803.421387
1061.035156	4685.403320
1059.922852	4713.612793
1058.811523	4744.057617
1057.699219	4626.128906
1056.586914	4690.289551
1055.473633	4779.137207
1054.361328	4656.784180
1053.248047	4799.501465
1052.134766	4823.148926
1051.021484	4622.292969
1049.907227	4652.701172
1048.792969	4586.606445
1047.678711	4666.364258
1046.564453	4642.910645
1045.449219	4637.406250
1044.333984	4634.146484
1043.218750	4673.475586
1042.103516	4710.545898
1040.987305	4743.118652
1039.871094	4690.556641
1038.754883	4705.202148
1037.638672	4713.124512
1036.521484	4685.226074
1035.404297	4744.622559
1034.287109	4698.828613
1033.169922	4617.261719
1032.051758	4634.138184
1030.933594	4729.269043
1029.815430	4788.588867
1028.697266	4686.956543
1027.578125	4735.085449
1026.458984	4794.363281
1025.339844	4672.693359
1024.220703	4577.873535
1023.100586	4552.306152
1021.980469	4716.480469
1020.860352	4652.955078
1019.740234	4776.873535
1018.619141	4686.594238
1017.498047	4678.870117
1016.376953	4628.785645
1015.255859	4576.493652
1014.133789	4702.519043
1013.011719	4656.917480
1011.889648	4693.760254
1010.767578	4755.085938
1009.644531	4758.489746
1008.521484	4668.389648
1007.398438	4631.747070
1006.274414	4693.030762
1005.151367	4611.902832
1004.027344	4619.780273
1002.902344	4769.975586
1001.778320	4639.971191
1000.653320	4745.638672
999.528320	4775.701172
998.403320	4832.411621
997.278320	4622.539551
996.152344	4856.922852
995.026367	4698.205078
993.900391	4608.372070
992.773438	4738.292480
991.646484	4754.994141
990.519531	4738.412598
989.392578	4646.430664
988.265625	4813.921387
987.137695	4657.672852
986.009766	4811.788086
984.881836	4724.301270
983.752930	4800.792969
982.624023	4671.263184
981.495117	4730.016602
980.366211	4775.459961
979.236328	4752.266113
978.106445	4622.859863
976.976563	4635.108887
975.846680	4822.097168
974.715820	4776.796875
973.585938	4915.028320
972.454102	4825.516602
971.323242	4797.924805
970.191406	4677.544922
969.060547	4720.685547
967.927734	4673.257324
966.795898	4716.378906
965.663086	4706.500000
964.530273	4663.519043
963.397461	4728.679199
962.264648	4712.184570
961.130859	4891.994141
959.997070	4736.548340
958.863281	4620.854492
957.729492	4701.377930
956.594727	4812.716309
955.459961	4741.144043
954.325195	4759.911621
953.189453	4736.829590
952.053711	4720.362305
950.917969	4710.505859
949.782227	4678.645996
948.646484	4679.803223
947.509766	4711.755371
946.373047	4682.114746
945.235352	4648.089355
944.098633	4680.025879
942.960938	4707.551758
941.823242	4633.992188
940.685547	4747.188965
939.546875	4623.138184
938.408203	4802.159180
937.269531	4610.097168
936.129883	4727.585938
934.991211	4658.506348
933.851563	4650.883789
932.711914	4623.524414
931.571289	4732.132813
930.431641	4717.920410
929.291016	4563.436035
928.149414	4696.088379
927.008789	4756.382324
925.867188	4678.654785
924.725586	4530.885254
923.583984	4691.886719
922.441406	4769.637207
921.299805	4567.234375
920.157227	4754.374023
919.013672	4788.308105
917.871094	4605.718750
916.727539	4543.465820
915.583984	4577.423340
914.439453	4652.889160
913.295898	4632.181152
912.151367	4746.921387
911.006836	4689.072754
909.861328	4618.148438
908.716797	4684.786133
907.571289	4675.004883
906.424805	4610.676758
905.279297	4644.546875
904.132813	4796.179199
902.986328	4712.240234
901.839844	4695.921875
900.692383	4718.842773
899.545898	4669.842285
898.398438	4629.578125
897.250000	4645.962891
896.102539	4697.182129
894.954102	4711.366699
893.805664	4827.847168
892.656250	4818.057129
891.507813	4723.418945
890.358398	4785.437500
889.208984	4732.167969
888.058594	4676.747559
886.908203	4636.568359
885.758789	4718.107910
884.607422	4680.108887
883.457031	4696.433594
882.305664	4654.112305
881.154297	4692.146973
880.002930	4730.164551
878.850586	4661.819336
877.698242	4632.561523
876.545898	4625.009277
875.393555	4576.252441
874.240234	4674.964844
873.086914	4621.881836
871.933594	4772.556152
870.780273	4578.626953
869.625977	4672.915527
868.471680	4715.179199
867.317383	4649.152832
866.162109	4678.412598
865.007813	4625.409668
863.852539	4611.381836
862.696289	4601.686523
861.541016	4566.040039
860.384766	4716.382324
859.228516	4572.625000
858.072266	4714.251465
856.915039	4542.465820
855.757813	4597.612793
854.600586	4514.491699
853.442383	4614.970215
852.285156	4743.470703
851.126953	4630.151855
849.968750	4639.895020
848.809570	4600.008789
847.650391	4696.038086
846.491211	4550.481445
845.332031	4635.696777
844.171875	4578.600586
843.012695	4579.719238
841.851563	4755.365234
840.691406	4685.354492
839.530273	4595.991699
838.369141	4558.345703
837.208008	4634.811035
836.046875	4459.429688
834.884766	4533.729980
833.722656	4534.853516
832.560547	4520.920898
831.397461	4584.404297
830.234375	4587.664063
829.071289	4464.112793
827.908203	4443.760742
826.744141	4545.872559
825.580078	4542.693359
824.416016	4507.304688
823.251953	4544.925293
822.086914	4543.893555
820.921875	4514.964844
819.756836	4509.648926
818.590820	4482.885742
817.425781	4522.611328
816.259766	4538.735352
815.092773	4426.244141
813.926758	4468.097656
812.759766	4569.921387
811.592773	4616.006836
810.424805	4578.551270
809.257813	4502.574707
808.089844	4484.426270
806.920898	4449.165527
805.752930	4516.619141
804.583984	4592.598633
803.415039	4553.058594
802.246094	4532.779785
801.076172	4640.766113
799.906250	4560.636230
798.736328	4529.684570
797.566406	4481.657715
796.395508	4593.827637
795.224609	4453.994141
794.053711	4715.547363
792.881836	4661.117676
791.710938	4619.514648
790.538086	4554.464844
789.366211	4625.939941
788.194336	4531.065918
787.021484	4581.195313
785.848633	4673.927734
784.674805	4638.769043
783.500977	4646.231934
782.327148	4615.354492
781.153320	4614.301270
779.979492	4542.996094
778.804688	4571.756348
777.629883	4553.689941
776.454102	4518.611816
775.279297	4604.783691
774.103516	4499.537109
772.927734	4606.933105
771.750977	4522.987793
770.575195	4422.080566
769.398438	4478.431152
768.220703	4420.060059
767.043945	4529.473145
765.866211	4564.529297
764.688477	4656.878418
763.510742	4517.879395
762.332031	4512.603027
761.153320	4488.239258
759.974609	4688.670898
758.794922	4590.072266
757.616211	4512.715332
756.436523	4596.449219
755.255859	4506.413086
754.076172	4615.527832
752.895508	4525.527832
751.714844	4513.905762
750.533203	4637.759766
749.352539	4486.444336
748.170898	4739.308105
746.988281	4706.493652
745.806641	4819.614746
744.624023	4736.052246
743.441406	4887.162598
742.258789	4805.735840
741.075195	4996.904785
739.891602	4974.635742
738.708008	5212.138672
737.523438	5565.659668
736.339844	5895.797852
735.155273	6132.925293
733.969727	6215.916992
732.785156	6362.153809
731.599609	6438.727051
730.414063	6355.018555
729.227539	6100.598633
728.041992	5802.036621
726.855469	5453.041992
725.667969	5215.854980
724.481445	5075.656738
723.293945	4954.472168
722.106445	4856.499512
720.918945	4813.291504
719.730469	4709.083008
718.541992	4680.653809
717.353516	4704.816895
716.164063	4604.909180
714.975586	4473.514160
713.786133	4674.252441
712.595703	4601.735840
711.406250	4506.143555
710.215820	4555.514648
709.025391	4617.461914
707.833984	4427.461426
706.642578	4485.210938
705.451172	4396.048828
704.259766	4466.365234
703.068359	4586.986328
701.875977	4445.438965
700.683594	4444.416016
699.490234	4361.651855
698.297852	4415.130371
697.104492	4508.388184
695.910156	4488.500000
694.716797	4520.971191
693.522461	4609.952148
692.328125	4556.564941
691.132813	4492.738770
689.938477	4627.689941
688.743164	4413.280762
687.547852	4571.189453
686.351563	4457.242188
685.155273	4577.444336
683.958984	4534.596191
682.762695	4462.519043
681.565430	4501.176270
680.368164	4504.315430
679.170898	4419.767578
677.973633	4454.232422
676.775391	4630.582520
675.577148	4466.783203
674.378906	4590.902832
673.179688	4543.966797
671.980469	4534.579590
670.781250	4443.905273
669.581055	4592.921387
668.381836	4550.193359
667.181641	4626.212891
665.980469	4556.424316
664.780273	4572.028809
663.579102	4600.114746
662.377930	4651.078613
661.175781	4756.112793
659.973633	4621.891602
658.771484	4758.076660
657.569336	4700.842773
656.367188	4560.490234
655.164063	4644.640625
653.960938	4680.966309
652.756836	4746.354980
651.552734	4807.560059
650.348633	4696.409668
649.144531	4722.309570
647.939453	4656.885742
646.735352	4641.286621
645.529297	4652.660156
644.324219	4695.135254
643.118164	4689.903809
641.912109	4748.933105
640.706055	4780.993652
639.499023	4655.574219
638.292969	4687.641113
637.084961	4638.925293
635.877930	4623.359863
634.669922	4690.600586
633.461914	4749.531738
632.253906	4700.845703
631.044922	4685.278809
629.836914	4721.420898
628.626953	4786.492188
627.417969	4700.632813
626.208008	4662.346191
624.998047	4671.598145
623.788086	4494.934082
622.577148	4768.566895
621.366211	4722.039551
620.155273	4679.661621
618.944336	4647.622070
617.732422	4537.191895
616.520508	4509.325195
615.308594	4667.081543
614.095703	4558.784668
612.882813	4493.826172
611.669922	4550.491211
610.457031	4481.443359
609.243164	4470.105957
608.029297	4528.795898
606.815430	4455.682129
605.600586	4469.060059
604.385742	4519.476074
603.170898	4469.047852
601.955078	4336.358398
600.740234	4464.921387
599.524414	4542.020508
598.307617	4565.636230
597.091797	4393.997559
595.875000	4347.775879
594.658203	4387.853027
593.440430	4444.341797
592.222656	4482.324707
591.004883	4553.134277
589.787109	4465.880859
588.568359	4477.157227
587.349609	4398.166992
586.130859	4466.878418
584.912109	4418.683105
583.692383	4403.309082
582.472656	4510.910645
581.251953	4438.149902
580.032227	4412.538574
578.811523	4534.398926
577.589844	4455.539551
576.369141	4530.249023
575.147461	4463.706543
573.925781	4429.933105
572.703125	4467.773438
571.481445	4509.687012
570.258789	4504.551270
569.035156	4562.790527
567.812500	4502.462402
566.588867	4546.370605
565.365234	4500.373535
564.140625	4576.939453
562.916992	4486.034668
561.692383	4515.615234
560.466797	4618.655762
559.242188	4484.953613
558.016602	4581.833008
556.791016	4595.046387
555.564453	4561.355469
554.337891	4621.454590
553.111328	4526.629395
551.884766	4472.600586
550.657227	4493.971191
549.429688	4566.249023
548.202148	4526.501465
546.974609	4568.201660
545.746094	4597.670410
544.517578	4608.812012
543.288086	4526.369629
542.058594	4565.995605
540.829102	4627.970703
539.599609	4667.554688
538.370117	4705.087402
537.139648	4539.406250
535.909180	4540.384277
534.677734	4575.888672
533.446289	4564.673340
532.214844	4632.636230
530.983398	4560.524902
529.750977	4604.106934
528.519531	4558.407227
527.286133	4541.123535
526.053711	4465.043457
524.820313	4614.023438
523.586914	4655.514648
522.353516	4634.170898
521.119141	4797.187500
519.884766	4901.393066
518.650391	4748.387695
517.415039	4700.723145
516.179688	4555.930664
514.944336	4607.483398
513.708984	4618.551758
