#Wave		#Intensity
1585.210938	20018.630859
1584.209961	19798.837891
1583.208984	19887.130859
1582.208008	19880.513672
1581.206055	19774.054688
1580.204102	19864.791016
1579.202148	19788.318359
1578.200195	19721.855469
1577.198242	19702.806641
1576.195313	19671.296875
1575.192383	19684.671875
1574.189453	19725.458984
1573.186523	19641.630859
1572.182617	19418.316406
1571.178711	19297.220703
1570.174805	19360.464844
1569.170898	19443.601563
1568.166992	19292.701172
1567.162109	19450.482422
1566.158203	19414.105469
1565.153320	19566.818359
1564.147461	19557.792969
1563.142578	19416.968750
1562.136719	19465.160156
1561.130859	19403.955078
1560.125000	19392.482422
1559.119141	19783.541016
1558.113281	19374.515625
1557.106445	19780.316406
1556.099609	19833.333984
1555.092773	20027.843750
1554.084961	19646.406250
1553.078125	20131.224609
1552.070313	20313.142578
1551.062500	20070.796875
1550.054688	20066.640625
1549.045898	20496.416016
1548.038086	20767.351563
1547.029297	20825.017578
1546.020508	20895.046875
1545.011719	21215.281250
1544.001953	21599.783203
1542.992188	21434.337891
1541.982422	21712.166016
1540.972656	22165.636719
1539.962891	21920.974609
1538.952148	22050.058594
1537.942383	22092.498047
1536.931641	22013.720703
1535.919922	22127.863281
1534.909180	21930.433594
1533.897461	21871.509766
1532.886719	21355.400391
1531.874023	21407.810547
1530.862305	21242.802734
1529.850586	20907.441406
1528.837891	20910.521484
1527.825195	20326.013672
1526.812500	20193.451172
1525.799805	20016.521484
1524.786133	19972.900391
1523.772461	20079.771484
1522.758789	19735.265625
1521.745117	19630.082031
1520.731445	19552.058594
1519.716797	19525.826172
1518.702148	19433.070313
1517.687500	19470.929688
1516.672852	19306.787109
1515.657227	19283.087891
1514.642578	19623.802734
1513.626953	19656.664063
1512.610352	19482.771484
1511.594727	19633.759766
1510.579102	19659.214844
1509.562500	19687.119141
1508.545898	19589.593750
1507.529297	19300.333984
1506.511719	19370.080078
1505.494141	19646.236328
1504.477539	19590.568359
1503.458984	19431.744141
1502.441406	19656.134766
1501.423828	19679.074219
1500.405273	19365.658203
1499.386719	19418.101563
1498.368164	19296.283203
1497.348633	19508.197266
1496.330078	19643.978516
1495.310547	19296.554688
1494.291016	19469.101563
1493.271484	19563.126953
1492.250977	19299.267578
1491.231445	19474.154297
1490.210938	19550.968750
1489.190430	19375.451172
1488.168945	19329.802734
1487.148438	19147.058594
1486.126953	19458.876953
1485.105469	19354.498047
1484.083984	19592.734375
1483.061523	19588.673828
1482.040039	19741.152344
1481.017578	19602.560547
1479.995117	19769.640625
1478.971680	19662.876953
1477.949219	20137.806641
1476.925781	20060.328125
1475.902344	19916.923828
1474.878906	20157.031250
1473.855469	20419.017578
1472.831055	20602.767578
1471.806641	20713.214844
1470.782227	20652.791016
1469.757813	21163.316406
1468.733398	21095.503906
1467.708008	21171.609375
1466.682617	21718.281250
1465.657227	21845.417969
1464.631836	22211.359375
1463.605469	22416.316406
1462.579102	22723.513672
1461.552734	22886.869141
1460.526367	23101.296875
1459.500000	23507.984375
1458.472656	23678.373047
1457.445313	24230.796875
1456.417969	23872.939453
1455.390625	23797.433594
1454.362305	24101.392578
1453.334961	23814.302734
1452.306641	23585.681641
1451.277344	23369.308594
1450.249023	23187.046875
1449.219727	22766.746094
1448.191406	22341.757813
1447.162109	22055.382813
1446.131836	21616.148438
1445.102539	21594.664063
1444.072266	21420.271484
1443.041992	21180.429688
1442.011719	20838.785156
1440.981445	20521.537109
1439.950195	20240.798828
1438.918945	20377.226563
1437.887695	20305.113281
1436.856445	20092.455078
1435.825195	19938.041016
1434.792969	19936.318359
1433.760742	20210.724609
1432.728516	19966.777344
1431.696289	19902.095703
1430.663086	19580.847656
1429.629883	19613.078125
1428.596680	19425.105469
1427.563477	19604.921875
1426.530273	19470.236328
1425.496094	19217.115234
1424.461914	19186.523438
1423.427734	19131.771484
1422.393555	19205.123047
1421.358398	19027.164063
1420.323242	19047.361328
1419.288086	19086.869141
1418.252930	19169.824219
1417.217773	18808.541016
1416.181641	19060.470703
1415.145508	19051.675781
1414.109375	18919.839844
1413.073242	19005.148438
1412.036133	18769.673828
1411.000000	18917.666016
1409.962891	18759.447266
1408.924805	19102.595703
1407.887695	19108.253906
1406.849609	19342.775391
1405.812500	19627.779297
1404.773438	20061.964844
1403.735352	20057.783203
1402.697266	20294.314453
1401.658203	20475.392578
1400.619141	20569.775391
1399.580078	20603.976563
1398.540039	20491.451172
1397.500977	20605.001953
1396.460938	20600.705078
1395.420898	20512.283203
1394.380859	20673.818359
1393.339844	20580.609375
1392.298828	20504.253906
1391.257813	20487.966797
1390.216797	20291.605469
1389.175781	20112.126953
1388.133789	20393.541016
1387.091797	20444.474609
1386.049805	20375.431641
1385.007813	20299.220703
1383.964844	20211.048828
1382.922852	20453.779297
1381.879883	20658.054688
1380.835938	20634.566406
1379.792969	20694.951172
1378.749023	20465.443359
1377.706055	21165.322266
1376.661133	21014.830078
1375.617188	20830.882813
1374.573242	21357.902344
1373.528320	21468.306641
1372.483398	21291.552734
1371.438477	21366.041016
1370.392578	21363.964844
1369.347656	21366.671875
1368.301758	21443.482422
1367.255859	21154.578125
1366.208984	21334.150391
1365.163086	21570.984375
1364.116211	21812.494141
1363.069336	21301.658203
1362.022461	21473.880859
1360.974609	21593.515625
1359.927734	21278.740234
1358.879883	21441.310547
1357.832031	21553.714844
1356.783203	21568.283203
1355.735352	21482.689453
1354.686523	21990.767578
1353.637695	21647.693359
1352.588867	21979.173828
1351.539063	22236.652344
1350.490234	22529.753906
1349.440430	22715.558594
1348.390625	23239.398438
1347.339844	23372.601563
1346.290039	23891.320313
1345.239258	23717.361328
1344.188477	24002.636719
1343.137695	24468.564453
1342.085938	24556.177734
1341.034180	25017.033203
1339.982422	25335.070313
1338.930664	25296.482422
1337.878906	25642.835938
1336.826172	25547.181641
1335.773438	25501.441406
1334.720703	25702.679688
1333.667969	25683.037109
1332.614258	25421.294922
1331.561523	25389.853516
1330.507813	25052.355469
1329.453125	25151.464844
1328.399414	24778.582031
1327.344727	24562.345703
1326.290039	24246.634766
1325.235352	23919.203125
1324.180664	23885.738281
1323.125000	23527.718750
1322.070313	23835.429688
1321.014648	23415.996094
1319.958008	23505.777344
1318.902344	23829.863281
1317.845703	23318.390625
1316.789063	23124.195313
1315.732422	22766.849609
1314.675781	22473.511719
1313.618164	22508.980469
1312.560547	22187.447266
1311.502930	21998.412109
1310.445313	21485.703125
1309.386719	21292.167969
1308.329102	20940.447266
1307.270508	20862.824219
1306.210938	20756.898438
1305.152344	20124.591797
1304.092773	20158.111328
1303.033203	19681.931641
1301.973633	19956.164063
1300.914063	19315.117188
1299.853516	19700.140625
1298.792969	19613.468750
1297.732422	19378.328125
1296.671875	19428.443359
1295.611328	19447.906250
1294.549805	19309.529297
1293.488281	19533.906250
1292.426758	19204.835938
1291.364258	19330.263672
1290.302734	19523.892578
1289.240234	19209.146484
1288.177734	19127.451172
1287.114258	19238.667969
1286.051758	18933.585938
1284.988281	19310.482422
1283.924805	19125.396484
1282.861328	19201.261719
1281.796875	19406.328125
1280.732422	19308.255859
1279.667969	19266.593750
1278.603516	19159.197266
1277.539063	19413.394531
1276.473633	19188.648438
1275.408203	19482.625000
1274.342773	19499.617188
1273.277344	19291.412109
1272.210938	19374.101563
1271.145508	19372.345703
1270.079102	19539.375000
1269.011719	19434.455078
1267.945313	19296.773438
1266.877930	19620.671875
1265.810547	19536.878906
1264.743164	19373.498047
1263.674805	19345.980469
1262.607422	19068.007813
1261.539063	18825.255859
1260.470703	18664.498047
1259.401367	18625.451172
1258.333008	18665.939453
1257.263672	18198.996094
1256.194336	18541.128906
1255.125000	18006.626953
1254.054688	18110.298828
1252.985352	17833.105469
1251.915039	17957.789063
1250.843750	17967.988281
1249.773438	17992.191406
1248.702148	17764.273438
1247.630859	17683.484375
1246.559570	17635.392578
1245.488281	17501.005859
1244.416016	17331.689453
1243.343750	17409.621094
1242.271484	17487.517578
1241.199219	17322.968750
1240.125977	17135.187500
1239.053711	17180.468750
1237.980469	17332.882813
1236.906250	17478.244141
1235.833008	17418.642578
1234.758789	17324.148438
1233.684570	17413.556641
1232.610352	17132.947266
1231.536133	17203.744141
1230.460938	17190.777344
1229.385742	17512.671875
1228.310547	16946.312500
1227.235352	17275.093750
1226.159180	17162.187500
1225.083008	16912.246094
1224.006836	16992.265625
1222.930664	17044.380859
1221.853516	17001.273438
1220.777344	17136.933594
1219.700195	17291.103516
1218.622070	17419.679688
1217.544922	17332.445313
1216.466797	17256.841797
1215.388672	17614.917969
1214.310547	17583.335938
1213.232422	17642.166016
1212.153320	17758.908203
1211.074219	17745.845703
1209.995117	17862.511719
1208.916016	17863.328125
1207.835938	17773.835938
1206.755859	17890.417969
1205.675781	17557.931641
1204.595703	17470.873047
1203.514648	17631.396484
1202.434570	17828.859375
1201.353516	17561.416016
1200.271484	17483.671875
1199.190430	17560.833984
1198.108398	17506.232422
1197.026367	17356.919922
1195.944336	17436.365234
1194.862305	17134.697266
1193.779297	17329.607422
1192.696289	17009.619141
1191.613281	16855.949219
1190.530273	17018.484375
1189.446289	17116.347656
1188.362305	16847.419922
1187.278320	16751.562500
1186.194336	16605.023438
1185.109375	16490.816406
1184.024414	16457.318359
1182.939453	16534.431641
1181.854492	16726.691406
1180.768555	16559.578125
1179.683594	16406.351563
1178.597656	16577.792969
1177.510742	16502.880859
1176.424805	16296.834961
1175.337891	16424.472656
1174.250977	16324.335938
1173.164063	16332.326172
1172.077148	16163.274414
1170.989258	16242.551758
1169.901367	16353.969727
1168.813477	16155.148438
1167.724609	16390.582031
1166.636719	16444.474609
1165.547852	16461.601563
1164.458984	16545.296875
1163.369141	16351.232422
1162.280273	16350.006836
1161.190430	16362.545898
1160.100586	16579.222656
1159.010742	16545.837891
1157.919922	16629.398438
1156.829102	16392.003906
1155.738281	16693.277344
1154.647461	16458.259766
1153.555664	16514.273438
1152.464844	16348.101563
1151.373047	16578.134766
1150.280273	16423.464844
1149.188477	16364.990234
1148.095703	16347.729492
1147.002930	16124.570313
1145.910156	16212.583008
1144.817383	16195.361328
1143.723633	16162.141602
1142.629883	16478.669922
1141.536133	16157.446289
1140.441406	16160.809570
1139.347656	16001.980469
1138.252930	15893.463867
1137.158203	16148.050781
1136.062500	16057.809570
1134.967773	16006.406250
1133.872070	16002.944336
1132.776367	15988.076172
1131.679688	15986.897461
1130.583984	16195.516602
1129.487305	16057.496094
1128.390625	16179.388672
1127.292969	16262.484375
1126.196289	16099.471680
1125.098633	15977.531250
1124.000977	15912.579102
1122.903320	16027.533203
1121.804688	16119.670898
1120.706055	16220.872070
1119.607422	16194.600586
1118.508789	15897.615234
1117.409180	16196.675781
1116.310547	15777.019531
1115.210938	15955.477539
1114.110352	15892.916992
1113.010742	15937.190430
1111.910156	15851.937500
1110.809570	15946.171875
1109.708984	15679.268555
1108.607422	15930.164063
1107.506836	15854.062500
1106.405273	15662.244141
1105.303711	15760.948242
1104.201172	15709.882813
1103.098633	15538.628906
1101.996094	15630.489258
1100.893555	15656.562500
1099.791016	15673.556641
1098.687500	15615.759766
1097.583984	15533.065430
1096.480469	15683.712891
1095.376953	15655.388672
1094.272461	15629.338867
1093.167969	15610.089844
1092.063477	15661.005859
1090.958008	15698.322266
1089.853516	15803.485352
1088.748047	15632.677734
1087.642578	15875.739258
1086.536133	15987.573242
1085.430664	15959.225586
1084.324219	16030.315430
1083.217773	16288.886719
1082.110352	16325.990234
1081.003906	16491.794922
1079.896484	16309.834961
1078.789063	16471.052734
1077.680664	16598.347656
1076.573242	16479.654297
1075.464844	16433.197266
1074.356445	16488.244141
1073.247070	16353.864258
1072.138672	16302.951172
1071.029297	16240.789063
1069.919922	16221.465820
1068.809570	16143.577148
1067.700195	16191.849609
1066.589844	15688.405273
1065.479492	15968.639648
1064.368164	15742.313477
1063.257813	15869.387695
1062.146484	15622.930664
1061.035156	15797.209961
1059.922852	15631.833008
1058.811523	15547.467773
1057.699219	15265.326172
1056.586914	15264.228516
1055.473633	15220.439453
1054.361328	15437.250977
1053.248047	15458.572266
1052.134766	15383.329102
1051.021484	15112.810547
1049.907227	15185.806641
1048.792969	15256.525391
1047.678711	15215.039063
1046.564453	15198.242188
1045.449219	15320.484375
1044.333984	15424.735352
1043.218750	15351.862305
1042.103516	15209.549805
1040.987305	15071.780273
1039.871094	15137.908203
1038.754883	15190.570313
1037.638672	15236.489258
1036.521484	15186.131836
1035.404297	15312.598633
1034.287109	15174.978516
1033.169922	15176.115234
1032.051758	15186.196289
1030.933594	15124.717773
1029.815430	14871.004883
1028.697266	15316.982422
1027.578125	15070.041016
1026.458984	15352.686523
1025.339844	15331.436523
1024.220703	14997.559570
1023.100586	15152.771484
1021.980469	15138.272461
1020.860352	15338.014648
1019.740234	15173.991211
1018.619141	15065.805664
1017.498047	15109.316406
1016.376953	15186.251953
1015.255859	15187.360352
1014.133789	15048.060547
1013.011719	14975.666016
1011.889648	15299.832031
1010.767578	15189.548828
1009.644531	14976.883789
1008.521484	14895.659180
1007.398438	15037.041016
1006.274414	15118.278320
1005.151367	15081.566406
1004.027344	15053.767578
1002.902344	15128.271484
1001.778320	15276.109375
1000.653320	15272.731445
999.528320	15093.792969
998.403320	15172.661133
997.278320	15262.599609
996.152344	15410.237305
995.026367	15233.641602
993.900391	15103.739258
992.773438	15200.265625
991.646484	15132.552734
990.519531	15126.983398
989.392578	15314.369141
988.265625	15579.278320
987.137695	15374.088867
986.009766	15419.442383
984.881836	15287.501953
983.752930	15308.482422
982.624023	15229.780273
981.495117	15312.764648
980.366211	14977.277344
979.236328	15031.503906
978.106445	15025.955078
976.976563	15104.480469
975.846680	15032.556641
974.715820	15046.910156
973.585938	15010.404297
972.454102	15086.647461
971.323242	14767.265625
970.191406	14786.079102
969.060547	14974.978516
967.927734	14883.308594
966.795898	14955.073242
965.663086	14803.841797
964.530273	14990.356445
963.397461	14841.388672
962.264648	15036.633789
961.130859	14927.418945
959.997070	15023.326172
958.863281	15165.486328
957.729492	15104.802734
956.594727	15293.154297
955.459961	15212.638672
954.325195	14977.972656
953.189453	14968.029297
952.053711	14909.652344
950.917969	14807.276367
949.782227	14801.775391
948.646484	14690.666016
947.509766	14832.570313
946.373047	14697.309570
945.235352	14449.972656
944.098633	14681.958984
942.960938	14856.700195
941.823242	14697.379883
940.685547	14639.179688
939.546875	14736.939453
938.408203	14764.389648
937.269531	14767.677734
936.129883	14904.845703
934.991211	14688.667969
933.851563	14742.424805
932.711914	14778.609375
931.571289	14952.925781
930.431641	15006.583008
929.291016	14950.623047
928.149414	15052.464844
927.008789	14838.773438
925.867188	14949.353516
924.725586	14845.273438
923.583984	14898.875000
922.441406	14794.849609
921.299805	14767.464844
920.157227	14619.754883
919.013672	15003.657227
917.871094	14412.006836
916.727539	14207.623047
915.583984	14366.201172
914.439453	14338.941406
913.295898	14335.726563
912.151367	14168.675781
911.006836	14158.946289
909.861328	14337.002930
908.716797	14366.532227
907.571289	14280.373047
906.424805	14296.806641
905.279297	14212.880859
904.132813	14427.797852
902.986328	14178.152344
901.839844	14451.840820
900.692383	14195.760742
899.545898	14129.377930
898.398438	14259.099609
897.250000	14458.462891
896.102539	14304.956055
894.954102	14382.295898
893.805664	14126.568359
892.656250	14321.424805
891.507813	14229.000977
890.358398	14297.582031
889.208984	14316.113281
888.058594	13969.365234
886.908203	13979.263672
885.758789	14097.819336
884.607422	14207.628906
883.457031	14315.215820
882.305664	13910.213867
881.154297	14067.755859
880.002930	14023.342773
878.850586	14150.401367
877.698242	14019.193359
876.545898	13990.001953
875.393555	13989.017578
874.240234	14217.877930
873.086914	13878.653320
871.933594	14083.591797
870.780273	13902.730469
869.625977	13981.916992
868.471680	13855.305664
867.317383	13908.480469
866.162109	13920.496094
865.007813	13867.571289
863.852539	13909.883789
862.696289	13774.771484
861.541016	14072.314453
860.384766	14062.648438
859.228516	13992.449219
858.072266	13969.833984
856.915039	13804.600586
855.757813	13831.728516
854.600586	13593.157227
853.442383	13795.241211
852.285156	13815.872070
851.126953	14138.692383
849.968750	14025.431641
848.809570	13944.584961
847.650391	13885.344727
846.491211	13791.625000
845.332031	13510.361328
844.171875	13640.953125
843.012695	13586.140625
841.851563	13770.521484
840.691406	13866.495117
839.530273	13893.505859
838.369141	13763.319336
837.208008	13628.884766
836.046875	13724.798828
834.884766	13614.100586
833.722656	13746.543945
832.560547	13747.728516
831.397461	13637.097656
830.234375	13661.952148
829.071289	13749.124023
827.908203	13657.903320
826.744141	13635.469727
825.580078	13703.254883
824.416016	13607.807617
823.251953	13649.803711
822.086914	13526.506836
820.921875	13733.733398
819.756836	13584.727539
818.590820	13579.497070
817.425781	13619.300781
816.259766	13581.903320
815.092773	13896.048828
813.926758	13487.869141
812.759766	13525.510742
811.592773	13578.127930
810.424805	13566.475586
809.257813	13514.146484
808.089844	13571.007813
806.920898	13371.037109
805.752930	13661.115234
804.583984	13482.602539
803.415039	13449.594727
802.246094	13461.500000
801.076172	13514.013672
799.906250	13491.703125
798.736328	13415.985352
797.566406	13489.832031
796.395508	13685.376953
795.224609	13603.258789
794.053711	13459.269531
792.881836	13804.079102
791.710938	13527.816406
790.538086	13725.257813
789.366211	13856.493164
788.194336	13659.297852
787.021484	13852.307617
785.848633	13919.481445
784.674805	13863.036133
783.500977	14089.949219
782.327148	13971.723633
781.153320	13766.247070
779.979492	13769.493164
778.804688	13713.140625
777.629883	13735.545898
776.454102	13611.147461
775.279297	13773.940430
774.103516	13553.898438
772.927734	13748.516602
771.750977	13566.836914
770.575195	13495.738281
769.398438	13671.113281
768.220703	13684.981445
767.043945	13875.094727
765.866211	14052.380859
764.688477	13936.673828
763.510742	14094.764648
762.332031	14051.232422
761.153320	14406.484375
759.974609	14492.254883
758.794922	14874.802734
757.616211	15136.355469
756.436523	15444.408203
755.255859	16625.210938
754.076172	17292.871094
752.895508	18220.703125
751.714844	19226.443359
750.533203	20496.314453
749.352539	21338.121094
748.170898	22996.224609
746.988281	23767.263672
745.806641	24438.554688
744.624023	24323.011719
743.441406	24311.097656
742.258789	24068.833984
741.075195	23427.347656
739.891602	23483.238281
738.708008	23444.064453
737.523438	23054.416016
736.339844	23180.005859
735.155273	22993.193359
733.969727	22568.041016
732.785156	22425.750000
731.599609	21720.421875
730.414063	20983.791016
729.227539	19920.751953
728.041992	18472.521484
726.855469	17652.853516
725.667969	16783.003906
724.481445	15835.626953
723.293945	15591.954102
722.106445	14881.055664
720.918945	14633.500977
719.730469	14253.498047
718.541992	14256.536133
717.353516	13998.776367
716.164063	13797.906250
714.975586	13662.296875
713.786133	13457.391602
712.595703	13420.678711
711.406250	13228.525391
710.215820	13378.805664
709.025391	13327.434570
707.833984	13183.716797
706.642578	13264.638672
705.451172	13177.654297
704.259766	13308.887695
703.068359	13161.106445
701.875977	13434.871094
700.683594	13270.355469
699.490234	13451.745117
698.297852	13662.386719
697.104492	13952.540039
695.910156	14039.391602
694.716797	14434.022461
693.522461	14721.701172
692.328125	14735.055664
691.132813	14455.444336
689.938477	14552.536133
688.743164	14235.444336
687.547852	13972.867188
686.351563	14159.897461
685.155273	13889.094727
683.958984	13850.371094
682.762695	13847.179688
681.565430	13639.294922
680.368164	13556.799805
679.170898	13499.393555
677.973633	13558.900391
676.775391	13269.884766
675.577148	13300.207031
674.378906	13365.972656
673.179688	13358.719727
671.980469	13401.506836
670.781250	13208.737305
669.581055	13261.956055
668.381836	13142.225586
667.181641	13174.603516
665.980469	13177.811523
664.780273	13066.508789
663.579102	13082.226563
662.377930	13168.692383
661.175781	13142.766602
659.973633	13050.291016
658.771484	13038.959961
657.569336	13262.572266
656.367188	13346.812500
655.164063	13416.465820
653.960938	13405.057617
652.756836	13393.653320
651.552734	13432.093750
650.348633	13763.262695
649.144531	13820.280273
647.939453	14107.625000
646.735352	13894.812500
645.529297	13993.243164
644.324219	14027.338867
643.118164	14061.417969
641.912109	13763.821289
640.706055	13688.107422
639.499023	13697.375000
638.292969	13605.137695
637.084961	13357.620117
635.877930	13462.196289
634.669922	13686.783203
633.461914	13321.454102
632.253906	13229.405273
631.044922	13373.213867
629.836914	13053.705078
628.626953	13209.890625
627.417969	13082.808594
626.208008	12997.116211
624.998047	13091.219727
623.788086	12941.527344
622.577148	12905.489258
621.366211	12993.351563
620.155273	13029.565430
618.944336	12828.427734
617.732422	12670.711914
616.520508	12731.726563
615.308594	12875.206055
614.095703	12853.668945
612.882813	12545.608398
611.669922	12664.297852
610.457031	12733.480469
609.243164	12800.571289
608.029297	12795.547852
606.815430	12615.510742
605.600586	12808.149414
604.385742	12628.190430
603.170898	12647.899414
601.955078	12786.909180
600.740234	12621.474609
599.524414	12616.495117
598.307617	12677.297852
597.091797	12797.671875
595.875000	12706.354492
594.658203	12744.495117
593.440430	12875.037109
592.222656	12880.266602
591.004883	12643.260742
589.787109	12414.574219
588.568359	12744.098633
587.349609	12654.986328
586.130859	12492.083008
584.912109	12571.204102
583.692383	12480.141602
582.472656	12298.944336
581.251953	12640.326172
580.032227	12567.745117
578.811523	12702.051758
577.589844	12594.679688
576.369141	12868.119141
575.147461	12811.922852
573.925781	13048.351563
572.703125	12977.818359
571.481445	12974.808594
570.258789	13022.917969
569.035156	13441.015625
567.812500	13460.379883
566.588867	13675.891602
565.365234	13717.662109
564.140625	13710.395508
562.916992	13819.518555
561.692383	13814.271484
560.466797	13680.446289
559.242188	13638.502930
558.016602	13537.418945
556.791016	13438.420898
555.564453	13396.560547
554.337891	13246.674805
553.111328	12897.123047
551.884766	13085.667969
550.657227	12746.500000
549.429688	12788.348633
548.202148	12620.448242
546.974609	12760.020508
545.746094	12539.286133
544.517578	12967.751953
543.288086	12600.598633
542.058594	12925.124023
540.829102	12635.417969
539.599609	12736.163086
538.370117	12509.638672
537.139648	12370.593750
535.909180	12715.106445
534.677734	12736.527344
533.446289	12733.571289
532.214844	12681.892578
530.983398	12668.800781
529.750977	12684.122070
528.519531	12679.148438
527.286133	12603.189453
526.053711	12788.841797
524.820313	12796.008789
523.586914	12596.440430
522.353516	12676.594727
521.119141	12651.367188
519.884766	12666.658203
518.650391	12560.447266
517.415039	12612.190430
516.179688	12570.806641
514.944336	12596.216797
513.708984	12609.475586
