#Wave		#Intensity
1585.210938	2565.082275
1584.209961	2507.636475
1583.208984	2577.036377
1582.208008	2559.026367
1581.206055	2618.402344
1580.204102	2468.125244
1579.202148	2497.554688
1578.200195	2497.037354
1577.198242	2479.062012
1576.195313	2585.769287
1575.192383	2562.796875
1574.189453	2477.521729
1573.186523	2584.162842
1572.182617	2596.084961
1571.178711	2443.600586
1570.174805	2438.113525
1569.170898	2494.876221
1568.166992	2471.955078
1567.162109	2426.643555
1566.158203	2533.140137
1565.153320	2453.004883
1564.147461	2420.161865
1563.142578	2479.343994
1562.136719	2439.049805
1561.130859	2503.175049
1560.125000	2470.348145
1559.119141	2467.352051
1558.113281	2374.924561
1557.106445	2431.558350
1556.099609	2436.021240
1555.092773	2519.928223
1554.084961	2400.261963
1553.078125	2459.324951
1552.070313	2461.296875
1551.062500	2443.422852
1550.054688	2450.357422
1549.045898	2472.166504
1548.038086	2444.384521
1547.029297	2438.921387
1546.020508	2411.157715
1545.011719	2415.613525
1544.001953	2348.233398
1542.992188	2397.277832
1541.982422	2384.401367
1540.972656	2381.432129
1539.962891	2373.514160
1538.952148	2452.206055
1537.942383	2379.953369
1536.931641	2419.035889
1535.919922	2378.968018
1534.909180	2304.302490
1533.897461	2420.005371
1532.886719	2347.833740
1531.874023	2468.421387
1530.862305	2433.324951
1529.850586	2390.833252
1528.837891	2382.930176
1527.825195	2468.846436
1526.812500	2401.690186
1525.799805	2364.175537
1524.786133	2430.303467
1523.772461	2375.530762
1522.758789	2404.634277
1521.745117	2413.999512
1520.731445	2467.735596
1519.716797	2486.942627
1518.702148	2461.785156
1517.687500	2412.000488
1516.672852	2561.758057
1515.657227	2452.867920
1514.642578	2348.947021
1513.626953	2410.003174
1512.610352	2402.120361
1511.594727	2448.375977
1510.579102	2442.948486
1509.562500	2314.540039
1508.545898	2449.313965
1507.529297	2416.844482
1506.511719	2401.594971
1505.494141	2492.029541
1504.477539	2400.600098
1503.458984	2336.231201
1502.441406	2500.305664
1501.423828	2526.799072
1500.405273	2445.258057
1499.386719	2457.024170
1498.368164	2485.963867
1497.348633	2443.738525
1496.330078	2406.436523
1495.310547	2447.631104
1494.291016	2452.027832
1493.271484	2385.328857
1492.250977	2436.305664
1491.231445	2440.701904
1490.210938	2467.145996
1489.190430	2398.049072
1488.168945	2404.898926
1487.148438	2414.194336
1486.126953	2418.589844
1485.105469	2486.617432
1484.083984	2471.420166
1483.061523	2404.854004
1482.040039	2387.233887
1481.017578	2411.193115
1479.995117	2444.922119
1478.971680	2529.969727
1477.949219	2373.035156
1476.925781	2521.590576
1475.902344	2474.652588
1474.878906	2496.121094
1473.855469	2520.022217
1472.831055	2604.947754
1471.806641	2455.514404
1470.782227	2498.931641
1469.757813	2483.774170
1468.733398	2475.940918
1467.708008	2551.031250
1466.682617	2511.488770
1465.657227	2596.291748
1464.631836	2532.382568
1463.605469	2597.651367
1462.579102	2645.838623
1461.552734	2530.806396
1460.526367	2591.163818
1459.500000	2488.364502
1458.472656	2556.008301
1457.445313	2677.167236
1456.417969	2606.046143
1455.390625	2576.311768
1454.362305	2677.932373
1453.334961	2572.810547
1452.306641	2628.195313
1451.277344	2591.188232
1450.249023	2707.302246
1449.219727	2580.393066
1448.191406	2633.300537
1447.162109	2712.902100
1446.131836	2651.632568
1445.102539	2631.659912
1444.072266	2764.610596
1443.041992	2613.579590
1442.011719	2690.675537
1440.981445	2709.522217
1439.950195	2626.501953
1438.918945	2693.847900
1437.887695	2751.468994
1436.856445	2683.033447
1435.825195	2682.475830
1434.792969	2781.248535
1433.760742	2676.516113
1432.728516	2707.441650
1431.696289	2571.292725
1430.663086	2587.702637
1429.629883	2693.652100
1428.596680	2589.046143
1427.563477	2523.190186
1426.530273	2469.454834
1425.496094	2519.722412
1424.461914	2482.933350
1423.427734	2569.434326
1422.393555	2392.484131
1421.358398	2486.216064
1420.323242	2519.517822
1419.288086	2456.199707
1418.252930	2513.639648
1417.217773	2418.965088
1416.181641	2490.870605
1415.145508	2560.332764
1414.109375	2511.547119
1413.073242	2484.490723
1412.036133	2616.612793
1411.000000	2485.867188
1409.962891	2487.760010
1408.924805	2595.697021
1407.887695	2481.904541
1406.849609	2522.342285
1405.812500	2550.719971
1404.773438	2509.250732
1403.735352	2511.135254
1402.697266	2503.390625
1401.658203	2570.253662
1400.619141	2588.966797
1399.580078	2586.021484
1398.540039	2482.062988
1397.500977	2565.706299
1396.460938	2538.726318
1395.420898	2523.775146
1394.380859	2571.310791
1393.339844	2493.891357
1392.298828	2454.937500
1391.257813	2514.465088
1390.216797	2540.352539
1389.175781	2535.021240
1388.133789	2412.087646
1387.091797	2577.155518
1386.049805	2492.649658
1385.007813	2460.947754
1383.964844	2395.685547
1382.922852	2443.136963
1381.879883	2519.333496
1380.835938	2559.549072
1379.792969	2508.696777
1378.749023	2522.546143
1377.706055	2517.229004
1376.661133	2578.962158
1375.617188	2542.511963
1374.573242	2525.225586
1373.528320	2417.009277
1372.483398	2509.814453
1371.438477	2571.483887
1370.392578	2501.590576
1369.347656	2431.726074
1368.301758	2445.561035
1367.255859	2531.092285
1366.208984	2406.304932
1365.163086	2573.036865
1364.116211	2512.784180
1363.069336	2485.989502
1362.022461	2561.871826
1360.974609	2549.400146
1359.927734	2458.176514
1358.879883	2531.630371
1357.832031	2531.100342
1356.783203	2544.880859
1355.735352	2558.655518
1354.686523	2500.901611
1353.637695	2486.076172
1352.588867	2480.789307
1351.539063	2437.383057
1350.490234	2541.683838
1349.440430	2526.861816
1348.390625	2602.526855
1347.339844	2516.280273
1346.290039	2563.354492
1345.239258	2574.715088
1344.188477	2555.142334
1343.137695	2656.885986
1342.085938	2589.742188
1341.034180	2679.547363
1339.982422	2481.686279
1338.930664	2657.033691
1337.878906	2656.476074
1336.826172	2665.420898
1335.773438	2591.233398
1334.720703	2699.921143
1333.667969	2713.598877
1332.614258	2686.919434
1331.561523	2726.697998
1330.507813	2700.026611
1329.453125	2735.041016
1328.399414	2689.405762
1327.344727	2722.036133
1326.290039	2702.499268
1325.235352	2732.742920
1324.180664	2646.862061
1323.125000	2643.936523
1322.070313	2657.592529
1321.014648	2645.192871
1319.958008	2623.328125
1318.902344	2755.335205
1317.845703	2700.323242
1316.789063	2624.038818
1315.732422	2673.165039
1314.675781	2665.507080
1313.618164	2688.592285
1312.560547	2650.200195
1311.502930	2689.823975
1310.445313	2620.726563
1309.386719	2667.427490
1308.329102	2704.660156
1307.270508	2621.432617
1306.210938	2609.074463
1305.152344	2655.737793
1304.092773	2610.335205
1303.033203	2682.934326
1301.973633	2621.030518
1300.914063	2601.608643
1299.853516	2707.177734
1298.792969	2668.884033
1297.732422	2694.250000
1296.671875	2646.548096
1295.611328	2676.620117
1294.549805	2636.008545
1293.488281	2696.687256
1292.426758	2519.516357
1291.364258	2561.359863
1290.302734	2558.465332
1289.240234	2553.218750
1288.177734	2557.385010
1287.114258	2519.209473
1286.051758	2544.546143
1284.988281	2518.145020
1283.924805	2510.560791
1282.861328	2437.173584
1281.796875	2439.008057
1280.732422	2527.762939
1279.667969	2482.602539
1278.603516	2493.818848
1277.539063	2451.031982
1276.473633	2462.249756
1275.408203	2513.357178
1274.342773	2454.169189
1273.277344	2458.341309
1272.210938	2532.868896
1271.145508	2497.161377
1270.079102	2496.632813
1269.011719	2496.104004
1267.945313	2425.277344
1266.877930	2417.735352
1265.810547	2435.961426
1264.743164	2493.989502
1263.674805	2502.826172
1262.607422	2497.614014
1261.539063	2433.896973
1260.470703	2424.021729
1259.401367	2435.204102
1258.333008	2434.687744
1257.263672	2410.788086
1256.194336	2468.721924
1255.125000	2379.380371
1254.054688	2411.590576
1252.985352	2441.450928
1251.915039	2424.581787
1250.843750	2370.354736
1249.773438	2435.226563
1248.702148	2528.082520
1247.630859	2389.849121
1246.559570	2443.008301
1245.488281	2437.823486
1244.416016	2523.602295
1243.343750	2497.415527
1242.271484	2548.174316
1241.199219	2573.272217
1240.125977	2456.206543
1239.053711	2399.767334
1237.980469	2487.772949
1236.906250	2396.417236
1235.833008	2500.684814
1234.758789	2381.430176
1233.684570	2457.727295
1232.610352	2401.358398
1231.536133	2498.555908
1230.460938	2491.046143
1229.385742	2441.681885
1228.310547	2427.212158
1227.235352	2489.454346
1226.159180	2379.699219
1225.083008	2390.809326
1224.006836	2476.248047
1222.930664	2457.140625
1221.853516	2454.294678
1220.777344	2483.950195
1219.700195	2471.815430
1218.622070	2445.762939
1217.544922	2440.601074
1216.466797	2458.635986
1215.388672	2485.938965
1214.310547	2392.668945
1213.232422	2392.158203
1212.153320	2414.822021
1211.074219	2472.230957
1209.995117	2453.170898
1208.916016	2524.442871
1207.835938	2438.229492
1206.755859	2389.093018
1205.675781	2451.074219
1204.595703	2476.004395
1203.514648	2466.220703
1202.434570	2396.302246
1201.353516	2347.226318
1200.271484	2362.908447
1199.190430	2339.287109
1198.108398	2463.583496
1197.026367	2428.397705
1195.944336	2372.436035
1194.862305	2427.357666
1193.779297	2399.128906
1192.696289	2347.826172
1191.613281	2391.176758
1190.530273	2328.359375
1189.446289	2390.151855
1188.362305	2364.266846
1187.278320	2412.188232
1186.194336	2492.367432
1185.109375	2427.289551
1184.024414	2468.251953
1182.939453	2364.036621
1181.854492	2289.812988
1180.768555	2303.140381
1179.683594	2369.422607
1178.597656	2396.539795
1177.510742	2402.929932
1176.424805	2296.560547
1175.337891	2401.897705
1174.250977	2359.978516
1173.164063	2368.670166
1172.077148	2329.074951
1170.989258	2427.417969
1169.901367	2387.826660
1168.813477	2401.099365
1167.724609	2313.289063
1166.636719	2278.340576
1165.547852	2339.848389
1164.458984	2286.543213
1163.369141	2276.870117
1162.280273	2356.695801
1161.190430	2314.891846
1160.100586	2328.155762
1159.010742	2382.692627
1157.919922	2386.764648
1156.829102	2349.574219
1155.738281	2330.733643
1154.647461	2325.648682
1153.555664	2302.239502
1152.464844	2352.129395
1151.373047	2401.997803
1150.280273	2284.725098
1149.188477	2281.943359
1148.095703	2318.063965
1147.002930	2347.305420
1145.910156	2298.764893
1144.817383	2289.121338
1143.723633	2332.067383
1142.629883	2370.423096
1141.536133	2333.345459
1140.441406	2305.423096
1139.347656	2300.356201
1138.252930	2297.575195
1137.158203	2345.029297
1136.062500	2289.733154
1134.967773	2289.238037
1133.872070	2453.039551
1132.776367	2413.724854
1131.679688	2479.349121
1130.583984	2462.849609
1129.487305	2466.876465
1128.390625	2416.194824
1127.292969	2456.692627
1126.196289	2440.211426
1125.098633	2421.459473
1124.000977	2496.090820
1122.903320	2302.008301
1121.804688	2424.438477
1120.706055	2392.049316
1119.607422	2425.663086
1118.508789	2372.812256
1117.409180	2267.670898
1116.310547	2339.947266
1115.210938	2341.712891
1114.110352	2307.109619
1113.010742	2340.696777
1111.910156	2337.916504
1110.809570	2251.090576
1109.708984	2389.135254
1108.607422	2336.393799
1107.506836	2313.185791
1106.405273	2285.448486
1105.303711	2305.373291
1104.201172	2309.409424
1103.098633	2376.949951
1101.996094	2365.094971
1100.893555	2360.046631
1099.791016	2316.467773
1098.687500	2352.221436
1097.583984	2365.303467
1096.480469	2439.537598
1095.376953	2314.452148
1094.272461	2356.966797
1093.167969	2415.308350
1092.063477	2392.150635
1090.958008	2364.477783
1089.853516	2323.243652
1088.748047	2363.447510
1087.642578	2322.230957
1086.536133	2378.241943
1085.430664	2400.325439
1084.324219	2413.360107
1083.217773	2331.502197
1082.110352	2376.167969
1081.003906	2409.522705
1079.896484	2415.770020
1078.789063	2471.673584
1077.680664	2340.242920
1076.573242	2407.419434
1075.464844	2375.312988
1074.356445	2280.072998
1073.247070	2297.613037
1072.138672	2288.093994
1071.029297	2384.506592
1069.919922	2354.692627
1068.809570	2324.891357
1067.700195	2299.607422
1066.589844	2368.910889
1065.479492	2339.125488
1064.368164	2365.623535
1063.257813	2421.364258
1062.146484	2387.086670
1061.035156	2341.576904
1059.922852	2350.059814
1058.811523	2387.767334
1057.699219	2371.509277
1056.586914	2400.205566
1055.473633	2397.432617
1054.361328	2376.689697
1053.248047	2351.463867
1052.134766	2348.702881
1051.021484	2377.371826
1049.907227	2410.516602
1048.792969	2335.937988
1047.678711	2371.320557
1046.564453	2379.771973
1045.449219	2390.461914
1044.333984	2286.806641
1043.218750	2409.585693
1042.103516	2413.538574
1040.987305	2321.148193
1039.871094	2349.758301
1038.754883	2402.989990
1037.638672	2393.505859
1036.521484	2410.887939
1035.404297	2356.645264
1034.287109	2434.440674
1033.169922	2279.549072
1032.051758	2413.240967
1030.933594	2352.336426
1029.815430	2329.462891
1028.697266	2360.241211
1027.578125	2368.660156
1026.458984	2359.202148
1025.339844	2314.010498
1024.220703	2382.727295
1023.100586	2411.226318
1021.980469	2390.605957
1020.860352	2329.824951
1019.740234	2394.014404
1018.619141	2375.641602
1017.498047	2399.649414
1016.376953	2263.110596
1015.255859	2400.820068
1014.133789	2284.398926
1013.011719	2404.217041
1011.889648	2401.458740
1010.767578	2331.885254
1009.644531	2306.876465
1008.521484	2359.796387
1007.398438	2365.952393
1006.274414	2278.645508
1005.151367	2287.041016
1004.027344	2319.899414
1002.902344	2310.491455
1001.778320	2447.823730
1000.653320	2369.485107
999.528320	2337.849121
998.403320	2341.775391
997.278320	2361.249268
996.152344	2285.218994
995.026367	2373.526123
993.900391	2417.397461
992.773438	2319.211182
991.646484	2329.791992
990.519531	2244.978271
989.392578	2350.938477
988.265625	2277.244385
987.137695	2398.668213
986.009766	2351.592529
984.881836	2368.798340
983.752930	2301.810791
982.624023	2312.375000
981.495117	2285.289063
980.366211	2298.065674
979.236328	2317.476807
978.106445	2310.323486
976.976563	2356.272461
975.846680	2335.841553
974.715820	2337.534424
973.585938	2394.500977
972.454102	2347.548828
971.323242	2280.727051
970.191406	2324.410645
969.060547	2343.775146
967.927734	2336.628662
966.795898	2261.035645
965.663086	2275.985840
964.530273	2370.383301
963.397461	2332.344238
962.264648	2259.024658
961.130859	2329.100830
959.997070	2396.940430
958.863281	2462.545166
957.729492	2373.832275
956.594727	2267.529785
955.459961	2308.884277
954.325195	2365.638672
953.189453	2360.707275
952.053711	2298.534668
950.917969	2364.057617
949.782227	2354.727783
948.646484	2307.998779
947.509766	2410.870117
946.373047	2267.383789
945.235352	2295.461426
944.098633	2341.112061
942.960938	2309.821289
941.823242	2289.530518
940.685547	2326.364258
939.546875	2321.452393
938.408203	2314.346680
937.269531	2355.540039
936.129883	2330.871094
934.991211	2352.293457
933.851563	2325.441895
932.711914	2335.888916
931.571289	2361.680664
930.431641	2352.383301
929.291016	2345.281738
928.149414	2329.417725
927.008789	2366.141357
925.867188	2444.465820
924.725586	2310.335205
923.583984	2349.227539
922.441406	2364.023926
921.299805	2365.683105
920.157227	2367.341309
919.013672	2296.812988
917.871094	2329.102783
916.727539	2378.869385
915.583984	2332.431152
914.439453	2362.505127
913.295898	2331.385498
912.151367	2416.058350
911.006836	2341.260254
909.861328	2310.165771
908.716797	2420.982422
907.571289	2429.169434
906.424805	2380.619141
905.279297	2323.364258
904.132813	2379.550537
902.986328	2365.932861
901.839844	2345.780762
900.692383	2406.282959
899.545898	2440.608154
898.398438	2398.666016
897.250000	2361.098877
896.102539	2484.694092
894.954102	2318.671631
893.805664	2385.626953
892.656250	2426.437988
891.507813	2471.581787
890.358398	2529.756348
889.208984	2374.782715
888.058594	2404.687500
886.908203	2412.841309
885.758789	2388.392578
884.607422	2348.745605
883.457031	2406.867920
882.305664	2347.687988
881.154297	2405.783936
880.002930	2403.071289
878.850586	2378.656494
877.698242	2315.195801
876.545898	2377.584473
875.393555	2309.814697
874.240234	2393.859619
873.086914	2332.619629
871.933594	2386.278076
870.780273	2322.900146
869.625977	2400.366455
868.471680	2356.506592
867.317383	2368.967285
866.162109	2305.649658
865.007813	2296.471680
863.852539	2347.887939
862.696289	2278.126953
861.541016	2331.686768
860.384766	2419.822021
859.228516	2309.013672
858.072266	2358.206543
856.915039	2286.360107
855.757813	2322.572266
854.600586	2322.047363
853.442383	2340.958252
852.285156	2273.497803
851.126953	2380.912598
849.968750	2341.528564
848.809570	2284.901123
847.650391	2258.498779
846.491211	2305.433350
845.332031	2238.071289
844.171875	2256.965576
843.012695	2323.264648
841.851563	2393.842773
840.691406	2345.908447
839.530273	2330.301270
838.369141	2263.023926
837.208008	2335.703613
836.046875	2358.848877
834.884766	2218.450684
833.722656	2250.216797
832.560547	2324.983643
831.397461	2320.155762
830.234375	2283.083008
829.071289	2278.266602
827.908203	2193.945801
826.744141	2266.491455
825.580078	2278.864014
824.416016	2301.967773
823.251953	2237.039307
822.086914	2234.385010
820.921875	2263.920166
819.756836	2237.661133
818.590820	2269.326660
817.425781	2283.822266
816.259766	2272.583740
815.092773	2259.206543
813.926758	2207.261719
812.759766	2223.899902
811.592773	2294.080322
810.424805	2229.313477
809.257813	2263.062988
808.089844	2283.953613
806.920898	2221.372559
805.752930	2315.008057
804.583984	2241.752686
803.415039	2142.867432
802.246094	2236.456299
801.076172	2201.745361
799.906250	2184.147217
798.736328	2258.432373
797.566406	2191.697266
796.395508	2167.705811
795.224609	2248.348877
794.053711	2194.469238
792.881836	2211.042969
791.710938	2242.544922
790.538086	2212.168457
789.366211	2288.443359
788.194336	2189.837402
787.021484	2283.136475
785.848633	2239.989990
784.674805	2243.740723
783.500977	2204.883057
782.327148	2197.990723
781.153320	2206.006592
779.979492	2218.276367
778.804688	2268.851074
777.629883	2364.088379
776.454102	2265.687988
775.279297	2252.409180
774.103516	2328.446533
772.927734	2251.380615
771.750977	2218.984375
770.575195	2190.852783
769.398438	2256.211670
768.220703	2232.332031
767.043945	2236.068848
765.866211	2254.665283
764.688477	2222.311523
763.510742	2162.385742
762.332031	2293.429199
761.153320	2239.877441
759.974609	2235.124023
758.794922	2211.291260
757.616211	2229.862305
756.436523	2256.901123
755.255859	2294.520752
754.076172	2296.113770
752.895508	2312.529785
751.714844	2244.249512
750.533203	2303.004395
749.352539	2255.919434
748.170898	2299.833984
746.988281	2350.073975
745.806641	2370.683594
744.624023	2378.597656
743.441406	2399.191162
742.258789	2360.601318
741.075195	2438.235840
739.891602	2450.351318
738.708008	2454.013428
737.523438	2565.355225
736.339844	2661.869385
735.155273	2532.522461
733.969727	2677.528320
732.785156	2759.183594
731.599609	2821.820068
730.414063	2787.436768
729.227539	2797.337402
728.041992	2676.566162
726.855469	2638.024902
725.667969	2551.050293
724.481445	2474.645752
723.293945	2385.642578
722.106445	2321.941406
720.918945	2211.967529
719.730469	2297.729492
718.541992	2332.964111
717.353516	2269.332764
716.164063	2321.378906
714.975586	2207.325928
713.786133	2276.176025
712.595703	2275.652832
711.406250	2167.990967
710.215820	2203.197266
709.025391	2177.493408
707.833984	2235.773682
706.642578	2220.567627
705.451172	2163.401611
704.259766	2244.720947
703.068359	2187.575195
701.875977	2199.653564
700.683594	2234.786621
699.490234	2219.600830
698.297852	2147.844482
697.104492	2222.769531
695.910156	2134.289063
694.716797	2198.712402
693.522461	2252.637939
692.328125	2176.769531
691.132813	2232.767822
689.938477	2127.649414
688.743164	2104.151855
687.547852	2185.220947
686.351563	2209.805176
685.155273	2165.402832
683.958984	2198.338867
682.762695	2156.048584
681.565430	2178.527588
680.368164	2215.613770
679.170898	2154.558350
677.973633	2181.196289
676.775391	2168.172607
675.577148	2217.744385
674.378906	2148.400635
673.179688	2291.794189
671.980469	2237.059326
670.781250	2219.868164
669.581055	2219.356201
668.381836	2264.679688
667.181641	2218.332520
665.980469	2271.964600
664.780273	2229.801025
663.579102	2275.079346
662.377930	2295.364502
661.175781	2280.270996
659.973633	2288.064941
658.771484	2277.138916
657.569336	2309.878906
656.367188	2265.694580
655.164063	2277.640381
653.960938	2366.453857
652.756836	2268.280029
651.552734	2361.207520
650.348633	2360.662354
649.144531	2275.011719
647.939453	2259.959229
646.735352	2257.362305
645.529297	2343.961670
644.324219	2262.540771
643.118164	2320.071777
641.912109	2313.316895
640.706055	2244.393555
639.499023	2310.175781
638.292969	2315.856201
637.084961	2246.979492
635.877930	2304.433350
634.669922	2206.610840
633.461914	2175.057861
632.253906	2228.349854
631.044922	2174.052246
629.836914	2121.847412
628.626953	2179.249512
627.417969	2195.282471
626.208008	2308.439941
624.998047	2155.009766
623.788086	2222.678955
622.577148	2151.947510
621.366211	2161.773193
620.155273	2219.072021
618.944336	2152.517822
617.732422	2226.298340
616.520508	2196.903564
615.308594	2159.272949
614.095703	2136.092529
612.882813	2195.378418
611.669922	2091.824463
610.457031	2219.087158
609.243164	2206.213623
608.029297	2176.870117
606.815430	2139.303955
605.600586	2136.750000
604.385742	2154.777588
603.170898	2174.854248
601.955078	2102.352295
600.740234	2095.695313
599.524414	2210.354004
598.307617	2189.285156
597.091797	2172.336426
595.875000	2173.887939
594.658203	2163.113037
593.440430	2144.127930
592.222656	2139.524658
591.004883	2157.504150
589.787109	2173.422852
588.568359	2082.637207
587.349609	2117.028076
586.130859	2231.388184
584.912109	2161.156250
583.692383	2084.806885
582.472656	2149.906982
581.251953	2133.016602
580.032227	2175.541260
578.811523	2062.393799
577.589844	2170.437500
576.369141	2118.756348
575.147461	2085.519043
573.925781	2087.081543
572.703125	2133.648193
571.481445	2188.374023
570.258789	2196.045410
569.035156	2175.093506
567.812500	2195.026855
566.588867	2210.864258
565.365234	2118.423828
564.140625	2113.847656
562.916992	2086.812744
561.692383	2155.736816
560.466797	2208.301270
559.242188	2164.938965
558.016602	2188.916748
556.791016	2094.590576
555.564453	2210.330566
554.337891	2142.544678
553.111328	2184.847656
551.884766	2123.211670
550.657227	2163.462158
549.429688	2183.326904
548.202148	2180.784180
546.974609	2182.313721
545.746094	2165.525146
544.517578	2110.083008
543.288086	2146.211182
542.058594	2220.965332
540.829102	2157.415283
539.599609	2203.671387
538.370117	2190.965088
537.139648	2214.840088
535.909180	2206.199951
534.677734	2177.253662
533.446289	2199.084229
532.214844	2168.122559
530.983398	2171.678467
529.750977	2189.436523
528.519531	2168.641602
527.286133	2216.814697
526.053711	2196.022705
524.820313	2232.003418
523.586914	2251.753174
522.353516	2281.625000
521.119141	2321.612061
519.884766	2319.047607
518.650391	2249.662598
517.415039	2226.871338
516.179688	2125.156494
514.944336	2169.179688
513.708984	2188.906250
