#Wave		#Intensity
2109.224609	4870.934082
2107.712891	4925.515137
2106.201172	4883.109863
2104.687500	4946.530762
2103.175781	4801.659668
2101.662109	4841.935547
2100.150391	4906.976563
2098.636719	4938.953125
2097.123047	4858.616211
2095.607422	4869.125488
2094.093750	4833.408691
2092.578125	4881.877930
2091.064453	4913.825684
2089.548828	5013.396484
2088.033203	4753.371094
2086.517578	4877.668457
2085.000000	4922.778809
2083.484375	4817.877441
2081.966797	4815.191895
2080.449219	4886.647461
2078.931641	4859.240234
2077.414063	4741.268066
2075.894531	4914.775879
2074.376953	4758.981934
2072.857422	4897.849609
2071.337891	4799.716309
2069.818359	4848.036621
2068.298828	4861.796875
2066.777344	4883.773438
2065.257813	4823.539551
2063.736328	4870.169922
2062.214844	4857.620605
2060.693359	4799.074707
2059.171875	4781.618164
2057.648438	4829.859863
2056.126953	4845.242188
2054.603516	4914.789551
2053.080078	4779.157715
2051.556641	4935.653809
2050.033203	4860.773438
2048.507813	4764.603516
2046.984375	4847.211914
2045.458984	4808.466309
2043.933594	4886.112305
2042.408203	4880.149902
2040.882813	4795.547363
2039.355469	4807.625000
2037.830078	4795.132324
2036.302734	4792.468750
2034.775391	4815.998535
2033.248047	4795.328613
2031.718750	4787.757813
2030.191406	4830.904297
2028.662109	4749.728027
2027.134766	4801.040527
2025.605469	4795.109863
2024.076172	4885.619141
2022.544922	4781.621582
2021.015625	4775.699219
2019.484375	4733.841797
2017.955078	4814.488281
2016.423828	4831.420898
2014.892578	4820.595215
2013.359375	4690.631348
2011.828125	4738.583008
2010.294922	4690.261719
2008.761719	4715.357910
2007.230469	4696.414551
2005.695313	4703.564941
2004.162109	4787.322754
2002.628906	4724.375000
2001.093750	4791.799316
1999.558594	4753.312012
1998.023438	4793.015137
1996.488281	4858.752930
1994.953125	4847.950684
1993.417969	4801.346191
1991.880859	4795.442383
1990.343750	4682.166504
1988.806641	4798.280273
1987.269531	4769.614258
1985.732422	4724.701660
1984.193359	4765.958984
1982.656250	4792.572754
1981.117188	4817.550293
1979.578125	4808.403809
1978.039063	4774.898926
1976.500000	4811.230469
1974.958984	4852.416504
1973.417969	4791.331543
1971.878906	4756.235840
1970.337891	4854.190918
1968.796875	4845.049316
1967.253906	4717.527344
1965.712891	4815.428223
1964.169922	4775.500977
1962.626953	4792.314453
1961.083984	4784.815430
1959.541016	4769.219727
1957.998047	4758.489746
1956.455078	4785.007324
1954.910156	4756.469727
1953.365234	4791.069824
1951.820313	4828.891602
1950.275391	4724.320313
1948.730469	4883.458008
1947.183594	4874.335938
1945.638672	4874.919434
1944.091797	4827.005371
1942.544922	4837.295410
1940.998047	4786.178223
1939.449219	4712.465332
1937.902344	4764.767090
1936.353516	4737.919922
1934.804688	4837.014160
1933.255859	4850.516602
1931.707031	4794.619141
1930.158203	4790.376465
1928.607422	4807.105957
1927.058594	4720.610352
1925.507813	4809.907227
1923.957031	4734.731934
1922.406250	4817.540527
1920.853516	4766.566406
1919.302734	4746.224609
1917.750000	4756.494629
1916.197266	4776.422852
1914.644531	4657.877930
1913.091797	4872.593262
1911.539063	4749.250000
1909.984375	4825.478027
1908.431641	4784.239746
1906.876953	4747.843750
1905.322266	4796.687500
1903.767578	4642.944336
1902.210938	4704.647461
1900.656250	4759.896973
1899.099609	4803.876465
1897.542969	4867.112305
1895.986328	4858.053223
1894.429688	4757.477051
1892.873047	4724.365234
1891.314453	4797.193848
1889.755859	4741.622559
1888.199219	4806.395020
1886.640625	4858.308594
1885.080078	4801.155762
1883.521484	4816.173340
1881.960938	4731.803711
1880.402344	4701.957031
1878.841797	4833.949219
1877.281250	4804.093262
1875.720703	4697.375000
1874.158203	4840.492188
1872.597656	4751.420410
1871.035156	4736.011719
1869.472656	4861.427246
1867.910156	4836.401855
1866.347656	4795.391602
1864.783203	4779.985840
1863.220703	4751.795410
1861.656250	4750.791504
1860.091797	4808.920410
1858.527344	4855.839844
1856.962891	4723.818848
1855.396484	4807.470703
1853.832031	4731.404297
1852.265625	4888.457520
1850.699219	4831.559570
1849.132813	4792.239258
1847.566406	4810.373047
1845.998047	4828.498535
1844.431641	4773.255371
1842.863281	4818.486816
1841.294922	4870.075684
1839.726563	4845.140137
1838.156250	4817.028320
1836.587891	4871.770508
1835.017578	4810.215820
1833.449219	4849.011230
1831.878906	4763.604980
1830.306641	4810.352539
1828.736328	4850.714355
1827.166016	4864.009766
1825.593750	4765.945801
1824.021484	4914.439941
1822.449219	4802.095703
1820.876953	4880.569336
1819.304688	4811.193848
1817.730469	4760.916016
1816.158203	4855.235840
1814.583984	4831.972656
1813.009766	4791.250488
1811.435547	4814.054688
1809.859375	4736.842285
1808.285156	4881.853516
1806.708984	4855.434570
1805.132813	4725.910156
1803.556641	4829.593262
1801.980469	4906.274414
1800.404297	4778.405762
1798.826172	4807.513184
1797.248047	4838.192383
1795.671875	4838.755371
1794.093750	4847.237793
1792.513672	4901.644531
1790.935547	4832.523438
1789.355469	4839.417969
1787.777344	4835.230469
1786.197266	5022.514160
1784.617188	4855.336914
1783.035156	4784.715332
1781.455078	4883.332520
1779.873047	4844.355469
1778.292969	4843.332520
1776.710938	4842.309082
1775.128906	4912.388672
1773.544922	4890.814453
1771.962891	4866.090332
1770.378906	4915.592285
1768.794922	4878.243164
1767.212891	4899.309570
1765.626953	4847.776855
1764.042969	5007.679688
1762.458984	4907.246582
1760.873047	4923.557129
1759.287109	4935.130371
1757.701172	4937.240234
1756.115234	4822.720703
1754.529297	5006.060547
1752.941406	4948.288574
1751.355469	4879.515625
1749.767578	4900.530273
1748.179688	4930.981934
1746.591797	5060.585938
1745.001953	5051.647461
1743.414063	4968.763184
1741.824219	5040.073242
1740.234375	4883.307617
1738.644531	5083.541504
1737.054688	5035.304688
1735.462891	5040.526367
1733.873047	5058.316895
1732.281250	5149.939941
1730.689453	5081.309082
1729.097656	5078.664063
1727.505859	5071.309082
1725.912109	5114.188965
1724.320313	5037.775391
1722.726563	5135.561035
1721.132813	5112.511719
1719.539063	5188.281738
1717.945313	5066.442383
1716.349609	5247.227539
1714.755859	5137.965820
1713.160156	5196.427246
1711.564453	5229.795410
1709.968750	5217.723633
1708.371094	5315.281738
1706.775391	5279.709961
1705.177734	5231.629395
1703.580078	5433.982910
1701.982422	5420.313965
1700.384766	5414.472168
1698.787109	5497.786621
1697.187500	5477.856445
1695.587891	5509.528320
1693.990234	5555.253906
1692.390625	5507.193359
1690.789063	5573.211426
1689.189453	5484.552246
1687.587891	5495.883789
1685.988281	5560.299316
1684.386719	5552.876465
1682.785156	5687.486816
1681.181641	5669.116211
1679.580078	5845.767578
1677.976563	5777.457031
1676.373047	5972.723145
1674.769531	5884.145020
1673.166016	5928.102051
1671.562500	6060.872559
1669.957031	6143.725586
1668.353516	6181.367188
1666.748047	6435.480957
1665.142578	6540.000977
1663.537109	6591.544434
1661.929688	6758.245117
1660.324219	6909.312988
1658.716797	7139.663574
1657.109375	7122.592285
1655.501953	7267.265137
1653.894531	7354.346680
1652.285156	7270.395996
1650.677734	7303.043457
1649.068359	7587.397949
1647.458984	7529.859375
1645.849609	7574.854492
1644.240234	7394.666992
1642.628906	7476.931152
1641.019531	7512.594238
1639.408203	7602.556641
1637.796875	7571.460938
1636.185547	7569.851074
1634.572266	7724.878906
1632.960938	7566.630859
1631.347656	7639.431152
1629.734375	7633.156250
1628.121094	7690.415039
1626.507813	7874.684570
1624.894531	7859.068848
1623.279297	7903.852539
1621.664063	7976.484863
1620.048828	8087.783203
1618.433594	8214.509766
1616.818359	8228.232422
1615.203125	8076.429199
1613.585938	8119.559570
1611.968750	8232.251953
1610.351563	8579.876953
1608.734375	8704.787109
1607.117188	8783.285156
1605.498047	8965.260742
1603.878906	8739.380859
1602.261719	8765.314453
1600.640625	8834.466797
1599.021484	8770.837891
1597.402344	8804.462891
1595.781250	8631.315430
1594.162109	8657.241211
1592.541016	8672.359375
1590.919922	8678.217773
1589.296875	8677.907227
1587.675781	8475.683594
1586.052734	8533.972656
1584.429688	8418.141602
1582.806641	8542.650391
1581.183594	8439.185547
1579.560547	8309.589844
1577.935547	8517.164063
1576.312500	8489.180664
1574.687500	8638.157227
1573.062500	8779.376953
1571.435547	8783.652344
1569.810547	8797.150391
1568.183594	8982.828125
1566.558594	8678.110352
1564.931641	8769.992188
1563.304688	8743.534180
1561.675781	8812.321289
1560.048828	8882.614258
1558.419922	9192.397461
1556.791016	9334.724609
1555.162109	9793.146484
1553.533203	9973.643555
1551.904297	10042.074219
1550.273438	10012.315430
1548.642578	9990.235352
1547.011719	9985.028320
1545.380859	9874.062500
1543.750000	9730.960938
1542.119141	9508.250977
1540.486328	9176.879883
1538.853516	8998.794922
1537.220703	8829.972656
1535.587891	8701.022461
1533.955078	8751.190430
1532.320313	8874.783203
1530.685547	8756.613281
1529.052734	8863.326172
1527.416016	9067.858398
1525.781250	9110.246094
1524.146484	9134.273438
1522.509766	9147.592773
1520.873047	9263.270508
1519.236328	9323.907227
1517.599609	9337.174805
1515.962891	9191.643555
1514.324219	9070.598633
1512.687500	9120.538086
1511.048828	9136.886719
1509.410156	9080.000977
1507.771484	8901.123047
1506.130859	8842.787109
1504.492188	8885.094727
1502.851563	8581.385742
1501.210938	8672.495117
1499.570313	8602.067383
1497.927734	8574.319336
1496.287109	8564.857422
1494.644531	8406.185547
1493.001953	8305.426758
1491.359375	8248.846680
1489.716797	8145.121094
1488.074219	8117.502930
1486.429688	8082.291504
1484.785156	8057.738281
1483.140625	8192.825195
1481.496094	8177.377930
1479.851563	8262.231445
1478.207031	8445.802734
1476.560547	8532.080078
1474.914063	8566.684570
1473.267578	8812.319336
1471.621094	8865.063477
1469.972656	8755.393555
1468.326172	8741.362305
1466.677734	8800.153320
1465.029297	8959.018555
1463.380859	9082.937500
1461.732422	9040.040039
1460.082031	9085.071289
1458.431641	9113.413086
1456.783203	9079.624023
1455.132813	9042.820313
1453.480469	8945.456055
1451.830078	8957.145508
1450.177734	8794.750977
1448.527344	8540.107422
1446.875000	8453.525391
1445.220703	8168.810059
1443.568359	7943.202148
1441.916016	7938.455566
1440.261719	7894.404785
1438.607422	7894.204102
1436.953125	7596.315430
1435.298828	7600.709961
1433.642578	7402.702148
1431.988281	7384.483887
1430.332031	7317.959473
1428.675781	6954.099121
1427.019531	7129.157715
1425.361328	6975.219238
1423.705078	7104.940918
1422.046875	6926.942871
1420.388672	6952.578125
1418.730469	6884.736328
1417.072266	6981.205078
1415.412109	6916.399414
1413.753906	6907.361816
1412.093750	7039.909180
1410.433594	7185.951172
1408.773438	7316.873047
1407.111328	7587.721680
1405.451172	7980.345703
1403.789063	8389.348633
1402.126953	8799.676758
1400.464844	8957.170898
1398.802734	9125.121094
1397.138672	8965.291992
1395.474609	8891.197266
1393.812500	8615.789063
1392.146484	8601.890625
1390.482422	8308.640625
1388.818359	8075.582031
1387.152344	8084.327637
1385.486328	8084.063477
1383.820313	8428.939453
1382.154297	8521.616211
1380.488281	8726.748047
1378.820313	8874.803711
1377.154297	9262.682617
1375.486328	9656.386719
1373.818359	9922.532227
1372.148438	9866.422852
1370.480469	9831.308594
1368.810547	9736.301758
1367.140625	9506.576172
1365.470703	9321.860352
1363.800781	9120.760742
1362.130859	8871.865234
1360.458984	8772.680664
1358.787109	8773.750000
1357.115234	8634.252930
1355.443359	8861.101563
1353.771484	8805.348633
1352.097656	9126.205078
1350.423828	9570.925781
1348.751953	10057.275391
1347.076172	10701.710938
1345.402344	11327.946289
1343.728516	12146.468750
1342.052734	13112.380859
1340.376953	13870.466797
1338.701172	14538.711914
1337.025391	15149.988281
1335.347656	15734.154297
1333.671875	16088.482422
1331.994141	15983.593750
1330.316406	16367.510742
1328.638672	16730.400391
1326.960938	16555.429688
1325.281250	16343.306641
1323.601563	16372.462891
1321.921875	15937.197266
1320.242188	15479.799805
1318.562500	15358.851563
1316.880859	14695.016602
1315.201172	13995.781250
1313.519531	13510.958984
1311.837891	12709.720703
1310.154297	12238.767578
1308.472656	11549.600586
1306.789063	11159.327148
1305.105469	10809.327148
1303.421875	10392.660156
1301.738281	9839.597656
1300.054688	9675.644531
1298.369141	9066.593750
1296.683594	8910.299805
1294.998047	8633.931641
1293.312500	8440.727539
1291.626953	8243.161133
1289.939453	7996.765625
1288.253906	7994.997070
1286.566406	7981.375488
1284.878906	7889.251465
1283.189453	7900.833984
1281.501953	7872.433594
1279.812500	8063.127441
1278.123047	8008.062988
1276.433594	8343.644531
1274.744141	8279.665039
1273.052734	8473.054688
1271.363281	8474.133789
1269.671875	8543.213867
1267.980469	8649.211914
1266.289063	8425.643555
1264.595703	8278.995117
1262.904297	8099.916016
1261.210938	8074.491211
1259.517578	7892.583008
1257.824219	7848.024902
1256.128906	7776.923828
1254.435547	7711.754395
1252.740234	7842.794434
1251.044922	7656.711426
1249.349609	7758.215820
1247.652344	7713.742188
1245.957031	7678.130371
1244.259766	7704.416504
1242.562500	7743.947266
1240.865234	7636.185547
1239.167969	7646.264648
1237.468750	7485.575684
1235.769531	7532.476074
1234.072266	7488.125977
1232.371094	7364.354980
1230.671875	7384.774902
1228.972656	7305.193848
1227.271484	7347.667969
1225.570313	7329.861328
1223.869141	7220.954102
1222.167969	7154.700195
1220.464844	6835.840332
1218.763672	6787.322266
1217.060547	6765.251953
1215.357422	6690.349121
1213.654297	6704.996094
1211.949219	6571.452148
1210.246094	6677.062500
1208.541016	6589.044922
1206.835938	6726.858398
1205.130859	6675.514160
1203.423828	6599.278320
1201.718750	6600.731445
1200.011719	6501.106934
1198.304688	6344.409180
1196.597656	6386.914551
1194.888672	6252.269531
1193.181641	6290.384277
1191.472656	6207.033203
1189.763672	6158.828613
1188.054688	6161.834961
1186.343750	6158.990723
1184.634766	6109.365234
1182.923828	5935.526367
1181.212891	6089.087891
1179.501953	5941.626953
1177.791016	5857.037598
1176.078125	5874.705566
1174.365234	6022.300781
1172.652344	6072.033691
1170.939453	6076.505859
1169.226563	6168.513672
1167.511719	6291.110352
1165.798828	6327.611328
1164.083984	6604.662109
1162.369141	6658.566406
1160.652344	6555.054688
1158.937500	6539.008789
1157.220703	6467.615723
1155.503906	6467.614746
1153.787109	6202.619141
1152.070313	6097.867188
1150.351563	5926.215820
1148.632813	6013.636230
1146.916016	5917.724121
1145.195313	5970.200684
1143.476563	5964.491699
1141.757813	5851.208984
1140.037109	6005.400391
1138.316406	5864.550781
1136.595703	5841.435059
1134.875000	5795.090820
1133.152344	5719.725586
1131.429688	5777.954102
1129.708984	5663.437012
1127.984375	5676.667480
1126.261719	5581.083984
1124.539063	5572.568848
1122.814453	5572.757813
1121.089844	5474.361328
1119.365234	5541.246094
1117.640625	5445.798340
1115.914063	5498.169922
1114.187500	5511.409180
1112.462891	5414.583008
1110.734375	5466.924805
1109.007813	5367.256348
1107.281250	5447.079590
1105.552734	5513.845215
1103.824219	5430.143555
1102.095703	5441.926758
1100.367188	5476.837402
1098.636719	5638.937012
1096.908203	5630.430176
1095.177734	5575.691895
1093.447266	5370.747070
1091.714844	5194.778320
1089.984375	5017.445313
1088.251953	5037.958008
1086.519531	4960.321777
1084.787109	4982.279785
1083.054688	4973.933594
1081.320313	4883.383301
1079.585938	5004.833008
1077.851563	4971.979004
1076.117188	4911.755859
1074.382813	4939.455566
1072.648438	4995.953613
1070.912109	5010.657715
1069.175781	5039.753906
1067.439453	5087.551758
1065.701172	5112.298340
1063.964844	5086.669922
1062.226563	5124.352051
1060.488281	5141.880371
1058.750000	5150.772461
1057.011719	5063.338867
1055.271484	5215.973633
1053.531250	5158.740234
1051.791016	5111.588867
1050.050781	5004.133301
1048.310547	5143.716797
1046.568359	5149.718750
1044.826172	5207.390137
1043.083984	5061.263672
1041.341797	5070.148438
1039.599609	5162.220703
1037.855469	5107.980469
1036.113281	5165.592285
1034.369141	5382.280762
1032.623047	5254.940918
1030.878906	5352.593750
1029.132813	5301.233887
1027.386719	5305.747070
1025.640625	5341.755859
1023.894531	5456.473633
1022.148438	5536.792969
1020.400391	5545.538086
1018.652344	5581.456055
1016.904297	5634.518555
1015.156250	5648.952148
1013.406250	5487.559570
1011.658203	5506.306641
1009.908203	5555.048828
1008.158203	5633.765137
1006.408203	5518.221191
1004.656250	5572.636230
1002.904297	5437.174316
1001.152344	5460.185059
999.400391	5438.954102
997.648438	5353.541016
995.896484	5340.899902
994.142578	5329.689941
992.388672	5289.975098
990.634766	5331.511230
988.878906	5374.453125
987.125000	5356.121094
985.369141	5370.552734
983.613281	5328.023438
981.857422	5379.465332
980.099609	5184.671387
978.343750	5260.310059
976.585938	5139.604004
974.828125	5203.839844
973.070313	5060.451172
971.310547	5035.117188
969.552734	5028.269531
967.792969	5132.254395
966.033203	5236.190430
964.273438	5286.109375
962.511719	5496.453613
960.750000	5591.714355
958.990234	5821.759277
957.226563	5885.683594
955.464844	5800.625488
953.703125	5709.933105
951.939453	5532.788086
950.175781	5306.107910
948.412109	5207.087402
946.648438	5091.108398
944.882813	5089.929688
943.117188	4971.198242
941.351563	5023.853516
939.585938	4932.088379
937.820313	4962.082031
936.052734	4745.854492
934.285156	4733.437012
932.517578	4687.080566
930.750000	4691.649414
928.982422	4656.632813
927.212891	4593.365234
925.443359	4569.690918
923.673828	4690.121094
921.904297	4568.981445
920.132813	4491.670898
918.361328	4657.208496
916.591797	4632.132813
914.818359	4676.209961
913.046875	4593.301270
911.275391	4606.337402
909.501953	4510.792480
907.728516	4502.694336
905.955078	4501.646973
904.179688	4514.690430
902.406250	4522.092285
900.630859	4512.589355
898.855469	4386.218262
897.080078	4417.575684
895.302734	4392.620117
893.525391	4394.411133
891.750000	4362.437988
889.970703	4374.079590
888.193359	4243.696289
886.416016	4290.503906
884.636719	4348.533691
882.857422	4208.410156
881.078125	4246.763184
879.296875	4195.210938
877.517578	4192.827637
875.736328	4093.580566
873.955078	4108.063477
872.173828	4093.072510
870.390625	4169.273438
868.609375	4096.770996
866.826172	4045.334717
865.042969	4082.239990
863.259766	3971.965576
861.474609	3978.043213
859.689453	4047.157471
857.904297	3997.191406
856.119141	3944.447998
854.333984	3984.122559
852.546875	3977.592041
850.761719	3983.657471
848.974609	4010.703369
847.185547	3999.974121
845.398438	3962.682617
843.609375	3937.989746
841.822266	3913.307861
840.031250	3933.350342
838.242188	3975.734131
836.453125	3997.148438
834.662109	4011.570801
832.871094	4069.260986
831.080078	4121.341309
829.289063	4151.071777
827.496094	4113.828125
825.703125	4089.153809
823.910156	4071.462158
822.117188	4003.593994
820.324219	4013.803711
818.529297	4018.434570
816.734375	3949.232666
814.939453	4058.328369
813.144531	4238.383301
811.347656	4146.904785
809.550781	4158.455566
807.755859	4019.730469
805.957031	3963.142822
804.160156	4055.390625
802.361328	4117.005371
800.564453	4143.838867
798.765625	4128.966309
796.964844	4046.018555
795.166016	4088.128418
793.365234	4180.214355
791.564453	4104.253906
789.763672	4253.205078
787.962891	4296.612793
786.160156	4223.452637
784.359375	4065.710693
782.556641	4020.374756
780.751953	4019.427490
778.949219	4111.353027
777.144531	4258.667969
775.339844	4245.194336
773.535156	4278.823242
771.730469	4290.277832
769.925781	4275.420410
768.119141	4307.632813
766.312500	4176.532227
764.505859	4181.080566
762.697266	4159.345703
760.890625	4053.263916
759.082031	4168.442383
757.273438	4239.334961
755.464844	4228.660156
753.654297	4376.873047
751.845703	4512.583984
750.035156	4656.516113
748.224609	4845.939941
746.412109	5352.738770
744.601563	5719.921875
742.789063	6666.375977
740.976563	8321.344727
739.164063	11489.648438
737.349609	15633.916016
735.537109	20521.896484
733.722656	24168.742188
731.908203	25154.947266
730.091797	23151.839844
728.277344	18945.066406
726.460938	14185.474609
724.644531	10834.784180
722.828125	8208.102539
721.009766	6736.891602
719.193359	5839.915527
717.375000	5175.750000
715.556641	4748.354004
713.736328	4656.517578
711.917969	4438.307617
710.097656	4262.787598
708.277344	4241.175781
706.457031	4089.127686
704.636719	4208.963379
702.814453	4203.847656
700.992188	4313.993652
699.169922	4351.380859
697.347656	4284.517090
695.523438	4264.304199
693.699219	4426.421387
691.875000	4476.079590
690.050781	4420.209961
688.226563	4598.611816
686.400391	4568.759766
684.574219	4578.628418
682.748047	4448.865723
680.921875	4220.628906
679.095703	4246.990723
677.267578	4173.482422
675.439453	4147.874512
673.611328	4063.485840
671.781250	4062.520020
669.953125	3987.757568
668.123047	3960.850342
666.292969	4013.180908
664.460938	4073.679932
662.630859	4030.386475
660.798828	4100.407227
658.966797	4104.890137
657.134766	4177.587402
655.302734	4228.425781
653.468750	4286.058105
651.634766	4316.395508
649.800781	4365.800293
647.966797	4278.910156
646.130859	4305.139160
644.294922	4321.820801
642.458984	4456.965332
640.623047	4489.939453
638.787109	4360.927734
636.949219	4393.908203
635.111328	4466.325195
633.273438	4552.308105
631.435547	4586.578125
629.595703	4715.994141
627.757813	4767.876953
625.917969	4908.057617
624.076172	4882.434570
622.236328	4764.467773
620.394531	4692.723633
618.552734	4623.728516
616.710938	4420.403320
614.869141	4331.151855
613.025391	4099.504883
611.183594	4040.208984
609.339844	3967.382080
607.494141	3937.968262
605.650391	3832.673584
603.804688	3791.111084
601.958984	3717.057129
600.113281	3698.564209
598.267578	3636.752930
596.419922	3654.835693
594.572266	3672.909668
592.724609	3688.268799
590.876953	3760.432373
589.027344	3789.286133
587.179688	3709.963623
585.330078	3713.132568
583.480469	3693.326416
581.628906	3654.614502
579.779297	3723.979736
577.927734	3764.952881
576.076172	3926.064209
574.222656	3821.193848
572.371094	3994.359131
570.517578	4067.606201
568.664063	4055.843750
566.810547	4181.631348
564.955078	4101.090332
563.101563	4244.328125
561.246094	4175.937988
559.390625	4077.941895
557.533203	4129.494629
555.677734	3989.812988
553.820313	3971.357910
551.962891	3947.527832
550.105469	3834.900635
548.246094	3863.579102
546.386719	3663.604492
544.527344	3705.755615
542.667969	3730.410645
540.808594	3804.780518
538.947266	3782.371826
537.085938	3824.453125
535.224609	3690.580322
533.363281	3716.551025
531.500000	3675.390625
529.638672	3669.142822
527.775391	3611.912354
525.910156	3769.333008
524.046875	3978.979980
522.181641	4614.887207
520.316406	5131.190918
518.451172	4806.994629
516.585938	4062.257813
514.718750	3718.379883
512.851563	3571.521729
510.984375	3426.072754
509.117188	3456.038086
507.250000	3298.642090
505.380859	3303.203369
503.511719	3278.336426
501.642578	3268.190674
499.771484	3252.701904
497.902344	3251.922852
496.031250	3220.409668
494.160156	3231.661865
492.287109	3221.538330
490.416016	3214.090088
488.542969	3217.324951
486.669922	3192.530273
484.796875	3153.069092
482.921875	3176.326416
481.046875	3155.559570
479.171875	3145.469971
477.296875	3236.698242
475.421875	3290.565430
473.544922	3248.471436
471.667969	3380.904541
469.791016	3578.531738
467.914063	3519.089355
466.035156	3522.239502
464.156250	3466.831055
462.277344	3259.770020
460.398438	3167.205078
458.519531	3207.672119
456.638672	3277.370361
454.757813	3160.940674
452.876953	3176.130127
450.994141	3176.697510
449.113281	3125.461182
447.230469	3197.750488
445.347656	3138.567383
443.462891	3196.218018
441.580078	3117.157959
439.695313	3137.637939
437.810547	3090.462646
435.925781	3152.046875
434.039063	3144.662598
432.152344	3135.956543
430.267578	3135.204834
428.378906	3084.111328
426.492188	3199.925781
424.603516	3111.764648
422.714844	3198.392090
420.826172	3119.537842
418.937500	3134.668457
417.046875	3153.760498
415.158203	3097.456787
413.265625	3091.425537
411.375000	3148.849609
409.484375	3101.838379
407.591797	3086.560791
405.699219	3056.759277
403.806641	3079.798828
401.912109	3117.351074
400.019531	3087.563232
