#Wave		#Intensity
1585.210938	16459.486328
1584.209961	16744.218750
1583.208984	16506.019531
1582.208008	16482.625000
1581.206055	16409.320313
1580.204102	16326.062500
1579.202148	16419.988281
1578.200195	16254.441406
1577.198242	16350.834961
1576.195313	16606.773438
1575.192383	16416.359375
1574.189453	16407.972656
1573.186523	16040.749023
1572.182617	16209.335938
1571.178711	16009.195313
1570.174805	15941.128906
1569.170898	16012.524414
1568.166992	16041.570313
1567.162109	15931.226563
1566.158203	15972.717773
1565.153320	15777.846680
1564.147461	16135.241211
1563.142578	15975.230469
1562.136719	16088.778320
1561.130859	16112.790039
1560.125000	15955.368164
1559.119141	16205.507813
1558.113281	16371.080078
1557.106445	16231.085938
1556.099609	16535.642578
1555.092773	16549.597656
1554.084961	16896.156250
1553.078125	16914.994141
1552.070313	17144.718750
1551.062500	17014.656250
1550.054688	17241.785156
1549.045898	17572.962891
1548.038086	17804.837891
1547.029297	18006.873047
1546.020508	18293.078125
1545.011719	18537.046875
1544.001953	18741.279297
1542.992188	19252.517578
1541.982422	19112.351563
1540.972656	19477.244141
1539.962891	19455.886719
1538.952148	19592.902344
1537.942383	19549.263672
1536.931641	19500.693359
1535.919922	19605.464844
1534.909180	19163.787109
1533.897461	19117.796875
1532.886719	18856.812500
1531.874023	18534.162109
1530.862305	18335.166016
1529.850586	18217.753906
1528.837891	17932.476563
1527.825195	17669.535156
1526.812500	17507.902344
1525.799805	17351.271484
1524.786133	17128.087891
1523.772461	16769.322266
1522.758789	16829.972656
1521.745117	16856.078125
1520.731445	16830.400391
1519.716797	16469.525391
1518.702148	16527.720703
1517.687500	16657.339844
1516.672852	16661.279297
1515.657227	16502.677734
1514.642578	16592.824219
1513.626953	16421.992188
1512.610352	16883.755859
1511.594727	16877.798828
1510.579102	16613.525391
1509.562500	16568.269531
1508.545898	16449.257813
1507.529297	16475.355469
1506.511719	16508.814453
1505.494141	16485.734375
1504.477539	16541.289063
1503.458984	16650.867188
1502.441406	16780.046875
1501.423828	16771.660156
1500.405273	16424.474609
1499.386719	16524.164063
1498.368164	16498.652344
1497.348633	16416.720703
1496.330078	16459.927734
1495.310547	16495.757813
1494.291016	16070.590820
1493.271484	16280.542969
1492.250977	16588.447266
1491.231445	16739.392578
1490.210938	16414.972656
1489.190430	16448.314453
1488.168945	16572.251953
1487.148438	16397.423828
1486.126953	16518.871094
1485.105469	16547.263672
1484.083984	16460.636719
1483.061523	16557.529297
1482.040039	16622.583984
1481.017578	16580.009766
1479.995117	16684.148438
1478.971680	16849.355469
1477.949219	16948.505859
1476.925781	16947.433594
1475.902344	17083.164063
1474.878906	17194.414063
1473.855469	17537.595703
1472.831055	17543.724609
1471.806641	17837.871094
1470.782227	18273.437500
1469.757813	18086.658203
1468.733398	18431.732422
1467.708008	18696.181641
1466.682617	18843.480469
1465.657227	19224.748047
1464.631836	19432.806641
1463.605469	20037.980469
1462.579102	20321.306641
1461.552734	20650.796875
1460.526367	21243.160156
1459.500000	21584.492188
1458.472656	21769.886719
1457.445313	21913.830078
1456.417969	22091.777344
1455.390625	22126.115234
1454.362305	21992.611328
1453.334961	21817.822266
1452.306641	21922.699219
1451.277344	21339.625000
1450.249023	21036.273438
1449.219727	20509.507813
1448.191406	20182.160156
1447.162109	19811.228516
1446.131836	19486.585938
1445.102539	18989.708984
1444.072266	18762.458984
1443.041992	18508.609375
1442.011719	18109.289063
1440.981445	17964.835938
1439.950195	17534.265625
1438.918945	17382.714844
1437.887695	17316.072266
1436.856445	17314.896484
1435.825195	17025.361328
1434.792969	16949.140625
1433.760742	16858.417969
1432.728516	16791.949219
1431.696289	16698.875000
1430.663086	16603.416016
1429.629883	16568.501953
1428.596680	16482.787109
1427.563477	16479.359375
1426.530273	16171.179688
1425.496094	16158.143555
1424.461914	16116.099609
1423.427734	16146.585938
1422.393555	16010.310547
1421.358398	15883.755859
1420.323242	15745.173828
1419.288086	15881.975586
1418.252930	15726.546875
1417.217773	15764.314453
1416.181641	15831.027344
1415.145508	15871.167969
1414.109375	15805.134766
1413.073242	16115.420898
1412.036133	15967.367188
1411.000000	15992.974609
1409.962891	16158.386719
1408.924805	15945.340820
1407.887695	16416.712891
1406.849609	16278.382813
1405.812500	16602.562500
1404.773438	16676.162109
1403.735352	16896.593750
1402.697266	17100.083984
1401.658203	17354.025391
1400.619141	17321.535156
1399.580078	17748.527344
1398.540039	17595.710938
1397.500977	17736.316406
1396.460938	17499.419922
1395.420898	17678.445313
1394.380859	17703.593750
1393.339844	17534.123047
1392.298828	17624.146484
1391.257813	17476.373047
1390.216797	17381.484375
1389.175781	17394.662109
1388.133789	17292.628906
1387.091797	17413.796875
1386.049805	17486.933594
1385.007813	17658.378906
1383.964844	17429.271484
1382.922852	17859.595703
1381.879883	17879.835938
1380.835938	18019.896484
1379.792969	17946.646484
1378.749023	18211.203125
1377.706055	18099.619141
1376.661133	18198.804688
1375.617188	18295.552734
1374.573242	18270.187500
1373.528320	18469.779297
1372.483398	18566.406250
1371.438477	18442.921875
1370.392578	18716.488281
1369.347656	18516.505859
1368.301758	18766.035156
1367.255859	18707.138672
1366.208984	18760.576172
1365.163086	18794.876953
1364.116211	18833.937500
1363.069336	18598.353516
1362.022461	18623.113281
1360.974609	18865.083984
1359.927734	18796.697266
1358.879883	18773.673828
1357.832031	19022.615234
1356.783203	19187.972656
1355.735352	19338.951172
1354.686523	19098.876953
1353.637695	19280.796875
1352.588867	19505.533203
1351.539063	19856.451172
1350.490234	20192.927734
1349.440430	20593.566406
1348.390625	21008.320313
1347.339844	21303.871094
1346.290039	21389.849609
1345.239258	21618.564453
1344.188477	22004.201172
1343.137695	22508.605469
1342.085938	22660.837891
1341.034180	22530.072266
1339.982422	23255.113281
1338.930664	23369.062500
1337.878906	23390.296875
1336.826172	23511.292969
1335.773438	23563.361328
1334.720703	23603.531250
1333.667969	23370.662109
1332.614258	23595.994141
1331.561523	23185.238281
1330.507813	22639.414063
1329.453125	22919.310547
1328.399414	22554.011719
1327.344727	22210.203125
1326.290039	21899.726563
1325.235352	21615.451172
1324.180664	21625.125000
1323.125000	21359.974609
1322.070313	21215.736328
1321.014648	21758.310547
1319.958008	20939.271484
1318.902344	20769.167969
1317.845703	20913.896484
1316.789063	20750.966797
1315.732422	20176.482422
1314.675781	20238.458984
1313.618164	20087.591797
1312.560547	19615.263672
1311.502930	19176.224609
1310.445313	19054.029297
1309.386719	18492.431641
1308.329102	18240.511719
1307.270508	17969.802734
1306.210938	17963.654297
1305.152344	17525.509766
1304.092773	17252.757813
1303.033203	17175.970703
1301.973633	16886.892578
1300.914063	16730.017578
1299.853516	16759.505859
1298.792969	16774.832031
1297.732422	16856.152344
1296.671875	16562.724609
1295.611328	16658.189453
1294.549805	16546.312500
1293.488281	16495.716797
1292.426758	16593.488281
1291.364258	16698.277344
1290.302734	16532.347656
1289.240234	16557.093750
1288.177734	16473.605469
1287.114258	16343.106445
1286.051758	16372.578125
1284.988281	16253.909180
1283.924805	16532.560547
1282.861328	16399.804688
1281.796875	16335.245117
1280.732422	16538.523438
1279.667969	16523.283203
1278.603516	16571.449219
1277.539063	16544.466797
1276.473633	16529.230469
1275.408203	16734.593750
1274.342773	16770.937500
1273.277344	16854.181641
1272.210938	16648.921875
1271.145508	16837.667969
1270.079102	16813.003906
1269.011719	16900.851563
1267.945313	16906.644531
1266.877930	16896.035156
1265.810547	16798.763672
1264.743164	16528.242188
1263.674805	16433.429688
1262.607422	16205.231445
1261.539063	16178.393555
1260.470703	16048.614258
1259.401367	15701.334961
1258.333008	15800.912109
1257.263672	15608.158203
1256.194336	15462.240234
1255.125000	15176.145508
1254.054688	15077.115234
1252.985352	14767.857422
1251.915039	14816.110352
1250.843750	14803.624023
1249.773438	15015.284180
1248.702148	14722.637695
1247.630859	14640.160156
1246.559570	14532.048828
1245.488281	14594.281250
1244.416016	14544.532227
1243.343750	14326.910156
1242.271484	14365.829102
1241.199219	14194.952148
1240.125977	14154.647461
1239.053711	14268.130859
1237.980469	14041.475586
1236.906250	14273.704102
1235.833008	14116.994141
1234.758789	13939.397461
1233.684570	14145.895508
1232.610352	14035.846680
1231.536133	14074.733398
1230.460938	14062.431641
1229.385742	13864.102539
1228.310547	13900.671875
1227.235352	14048.797852
1226.159180	14180.590820
1225.083008	14189.185547
1224.006836	14155.962891
1222.930664	14213.328125
1221.853516	14142.960938
1220.777344	14297.802734
1219.700195	14443.293945
1218.622070	14563.196289
1217.544922	14437.130859
1216.466797	14510.591797
1215.388672	14755.624023
1214.310547	14680.600586
1213.232422	14651.968750
1212.153320	14975.604492
1211.074219	14898.261719
1209.995117	14959.941406
1208.916016	14924.320313
1207.835938	15178.152344
1206.755859	15056.841797
1205.675781	15164.719727
1204.595703	15024.950195
1203.514648	14993.974609
1202.434570	14939.880859
1201.353516	14730.868164
1200.271484	14933.488281
1199.190430	14645.971680
1198.108398	14668.258789
1197.026367	14607.354492
1195.944336	14735.900391
1194.862305	14517.955078
1193.779297	14242.374023
1192.696289	14257.791992
1191.613281	14252.428711
1190.530273	14265.527344
1189.446289	14184.029297
1188.362305	14077.191406
1187.278320	13845.868164
1186.194336	13750.674805
1185.109375	13814.573242
1184.024414	13592.670898
1182.939453	13730.305664
1181.854492	13531.550781
1180.768555	13699.079102
1179.683594	13693.834961
1178.597656	13456.075195
1177.510742	13582.079102
1176.424805	13657.401367
1175.337891	13454.308594
1174.250977	13550.325195
1173.164063	13328.944336
1172.077148	13470.927734
1170.989258	13410.564453
1169.901367	13306.560547
1168.813477	13487.515625
1167.724609	13280.162109
1166.636719	13302.569336
1165.547852	13586.734375
1164.458984	13462.137695
1163.369141	13693.353516
1162.280273	13635.332031
1161.190430	13779.227539
1160.100586	13519.360352
1159.010742	13637.990234
1157.919922	13795.545898
1156.829102	13792.573242
1155.738281	13702.513672
1154.647461	13740.802734
1153.555664	13978.373047
1152.464844	13819.619141
1151.373047	13528.124023
1150.280273	13614.489258
1149.188477	13780.923828
1148.095703	13336.305664
1147.002930	13479.847656
1145.910156	13330.548828
1144.817383	13311.663086
1143.723633	13487.123047
1142.629883	13440.779297
1141.536133	13202.484375
1140.441406	13348.148438
1139.347656	13091.699219
1138.252930	13397.192383
1137.158203	13241.309570
1136.062500	13222.466797
1134.967773	13100.922852
1133.872070	12986.276367
1132.776367	13156.854492
1131.679688	13192.783203
1130.583984	13210.452148
1129.487305	13132.354492
1128.390625	12999.584961
1127.292969	13274.799805
1126.196289	13151.167969
1125.098633	12975.195313
1124.000977	13134.083984
1122.903320	12976.404297
1121.804688	13221.727539
1120.706055	13116.442383
1119.607422	13211.444336
1118.508789	13072.080078
1117.409180	13278.499023
1116.310547	13059.588867
1115.210938	13222.720703
1114.110352	13199.394531
1113.010742	12898.830078
1111.910156	12995.999023
1110.809570	12865.971680
1109.708984	12926.766602
1108.607422	13019.322266
1107.506836	12916.611328
1106.405273	12793.518555
1105.303711	12967.725586
1104.201172	12973.981445
1103.098633	12826.002930
1101.996094	12569.244141
1100.893555	12639.058594
1099.791016	12575.110352
1098.687500	12717.406250
1097.583984	12855.106445
1096.480469	12861.370117
1095.376953	12736.280273
1094.272461	12851.242188
1093.167969	12667.352539
1092.063477	12657.803711
1090.958008	12824.746094
1089.853516	12901.127930
1088.748047	13018.184570
1087.642578	13069.616211
1086.536133	13087.113281
1085.430664	13364.523438
1084.324219	13352.570313
1083.217773	13620.762695
1082.110352	13658.448242
1081.003906	13601.270508
1079.896484	13855.683594
1078.789063	13699.166992
1077.680664	14000.836914
1076.573242	13839.841797
1075.464844	13787.192383
1074.356445	13831.541016
1073.247070	14020.174805
1072.138672	13762.377930
1071.029297	13669.218750
1069.919922	13519.766602
1068.809570	13404.169922
1067.700195	13130.961914
1066.589844	13272.206055
1065.479492	13309.826172
1064.368164	13108.840820
1063.257813	12948.448242
1062.146484	12873.619141
1061.035156	12731.340820
1059.922852	12584.625977
1058.811523	12563.882813
1057.699219	12635.310547
1056.586914	12574.110352
1055.473633	12512.936523
1054.361328	12305.771484
1053.248047	12300.828125
1052.134766	12369.984375
1051.021484	12324.618164
1049.907227	12364.559570
1048.792969	12287.796875
1047.678711	12303.047852
1046.564453	12430.439453
1045.449219	12407.529297
1044.333984	12245.625977
1043.218750	12162.243164
1042.103516	12199.910156
1040.987305	12156.901367
1039.871094	12223.670898
1038.754883	12041.824219
1037.638672	12166.801758
1036.521484	12320.823242
1035.404297	12226.355469
1034.287109	12270.655273
1033.169922	12162.815430
1032.051758	12307.751953
1030.933594	12168.644531
1029.815430	12320.220703
1028.697266	12330.919922
1027.578125	12410.884766
1026.458984	12321.022461
1025.339844	12240.132813
1024.220703	12333.460938
1023.100586	12290.556641
1021.980469	12406.151367
1020.860352	12240.507813
1019.740234	12380.602539
1018.619141	12170.422852
1017.498047	12343.921875
1016.376953	12321.131836
1015.255859	12193.580078
1014.133789	11976.936523
1013.011719	12183.743164
1011.889648	12163.233398
1010.767578	12131.593750
1009.644531	11957.458984
1008.521484	12001.568359
1007.398438	12245.973633
1006.274414	12111.979492
1005.151367	12218.316406
1004.027344	12253.428711
1002.902344	12404.160156
1001.778320	12210.215820
1000.653320	12331.992188
999.528320	12031.477539
998.403320	12219.890625
997.278320	12010.606445
996.152344	12254.458984
995.026367	12409.389648
993.900391	12415.522461
992.773438	12277.393555
991.646484	12265.799805
990.519531	12409.494141
989.392578	12506.549805
988.265625	12503.778320
987.137695	12709.394531
986.009766	12764.204102
984.881836	12522.057617
983.752930	12612.328125
982.624023	12687.053711
981.495117	12509.299805
980.366211	12457.818359
979.236328	12439.559570
978.106445	12273.041016
976.976563	12122.081055
975.846680	12214.504883
974.715820	12278.137695
973.585938	12259.933594
972.454102	12228.474609
971.323242	12006.966797
970.191406	12128.032227
969.060547	12244.624023
967.927734	11919.456055
966.795898	11976.422852
965.663086	11982.590820
964.530273	12046.137695
963.397461	11937.541992
962.264648	12067.250977
961.130859	12163.817383
959.997070	12092.751953
958.863281	12109.902344
957.729492	12120.430664
956.594727	12155.193359
955.459961	12176.720703
954.325195	11991.188477
953.189453	12056.784180
952.053711	11983.644531
950.917969	11954.559570
949.782227	12002.509766
948.646484	12039.437500
947.509766	11728.794922
946.373047	11829.541992
945.235352	11976.416016
944.098633	11973.743164
942.960938	11896.348633
941.823242	11827.776367
940.685547	11992.088867
939.546875	12057.496094
938.408203	11839.617188
937.269531	12126.750977
936.129883	12358.884766
934.991211	12307.848633
933.851563	12359.943359
932.711914	12133.461914
931.571289	12238.198242
930.431641	12196.000000
929.291016	12337.935547
928.149414	12186.163086
927.008789	12168.100586
925.867188	12156.617188
924.725586	12245.872070
923.583984	12179.638672
922.441406	11892.353516
921.299805	12187.316406
920.157227	11825.766602
919.013672	11818.743164
917.871094	11831.404297
916.727539	11645.090820
915.583984	11736.478516
914.439453	11716.364258
913.295898	11499.608398
912.151367	11687.082031
911.006836	11365.595703
909.861328	11496.241211
908.716797	11408.524414
907.571289	11556.560547
906.424805	11477.595703
905.279297	11483.745117
904.132813	11400.467773
902.986328	11437.159180
901.839844	11473.833008
900.692383	11538.824219
899.545898	11523.157227
898.398438	11400.744141
897.250000	11522.335938
896.102539	11613.385742
894.954102	11591.180664
893.805664	11566.808594
892.656250	11448.870117
891.507813	11587.715820
890.358398	11371.939453
889.208984	11256.296875
888.058594	11449.443359
886.908203	11605.549805
885.758789	11587.724609
884.607422	11515.588867
883.457031	11410.899414
882.305664	11308.428711
881.154297	11538.208984
880.002930	11262.089844
878.850586	11543.862305
877.698242	11463.148438
876.545898	11519.136719
875.393555	11147.837891
874.240234	11153.998047
873.086914	11101.622070
871.933594	11292.014648
870.780273	11419.480469
869.625977	11172.102539
868.471680	11197.738281
867.317383	11110.759766
866.162109	11125.572266
865.007813	11088.429688
863.852539	10999.368164
862.696289	11185.105469
861.541016	11050.638672
860.384766	11169.241211
859.228516	11099.696289
858.072266	11062.604492
856.915039	10980.146484
855.757813	10973.343750
854.600586	10936.302734
853.442383	11018.052734
852.285156	10924.880859
851.126953	11034.656250
849.968750	11021.369141
848.809570	11180.696289
847.650391	11025.011719
846.491211	10862.925781
845.332031	11015.708984
844.171875	11021.838867
843.012695	11090.463867
841.851563	10973.753906
840.691406	10930.339844
839.530273	11063.546875
838.369141	11009.363281
837.208008	10909.996094
836.046875	10916.132813
834.884766	10939.479492
833.722656	11124.159180
832.560547	11020.550781
831.397461	10865.381836
830.234375	11022.002930
829.071289	11060.339844
827.908203	11049.235352
826.744141	11074.657227
825.580078	10870.246094
824.416016	11005.209961
823.251953	11037.061523
822.086914	10995.920898
820.921875	10965.528320
819.756836	11031.690430
818.590820	10969.127930
817.425781	10921.602539
816.259766	10968.432617
815.092773	10888.775391
813.926758	11057.738281
812.759766	11003.805664
811.592773	11069.847656
810.424805	11000.944336
809.257813	10741.519531
808.089844	10936.006836
806.920898	10668.152344
805.752930	10736.331055
804.583984	10740.305664
803.415039	10973.106445
802.246094	10782.456055
801.076172	10863.369141
799.906250	10781.822266
798.736328	10841.330078
797.566406	10907.218750
796.395508	10857.749023
795.224609	10791.220703
794.053711	10974.481445
792.881836	11006.127930
791.710938	10939.608398
790.538086	11167.504883
789.366211	11086.047852
788.194336	11279.688477
787.021484	11285.643555
785.848633	11255.363281
784.674805	11546.848633
783.500977	11561.256836
782.327148	11262.572266
781.153320	11409.056641
779.979492	11195.696289
778.804688	11395.336914
777.629883	11145.900391
776.454102	11015.711914
775.279297	11051.481445
774.103516	11146.773438
772.927734	11095.331055
771.750977	11118.302734
770.575195	11296.385742
769.398438	11094.102539
768.220703	11142.543945
767.043945	11246.173828
765.866211	11402.831055
764.688477	11550.925781
763.510742	11558.895508
762.332031	11755.681641
761.153320	12020.250977
759.974609	12291.060547
758.794922	12612.628906
757.616211	13063.346680
756.436523	13816.896484
755.255859	14523.490234
754.076172	15477.585938
752.895508	16937.375000
751.714844	18225.000000
750.533203	19666.556641
749.352539	21393.142578
748.170898	22484.208984
746.988281	23822.261719
745.806641	24019.826172
744.624023	24221.525391
743.441406	23702.316406
742.258789	23515.138672
741.075195	22493.466797
739.891602	22272.849609
738.708008	21526.470703
737.523438	21230.162109
736.339844	20758.781250
735.155273	20462.781250
733.969727	20093.068359
732.785156	19221.468750
731.599609	18721.447266
730.414063	17506.875000
729.227539	16290.748047
728.041992	15361.803711
726.855469	14473.317383
725.667969	13507.295898
724.481445	13070.341797
723.293945	12528.308594
722.106445	12197.034180
720.918945	11821.713867
719.730469	11591.750977
718.541992	11448.143555
717.353516	11315.116211
716.164063	11285.181641
714.975586	10986.176758
713.786133	10876.463867
712.595703	10991.634766
711.406250	10856.760742
710.215820	10978.181641
709.025391	10734.180664
707.833984	10660.336914
706.642578	10668.379883
705.451172	10863.171875
704.259766	10632.005859
703.068359	10881.247070
701.875977	10859.871094
700.683594	10748.359375
699.490234	10980.631836
698.297852	11384.624023
697.104492	11499.323242
695.910156	11999.354492
694.716797	12187.148438
693.522461	12272.270508
692.328125	12472.471680
691.132813	12565.857422
689.938477	12397.689453
688.743164	12373.918945
687.547852	12228.873047
686.351563	11954.273438
685.155273	11706.970703
683.958984	11698.004883
682.762695	11450.874023
681.565430	11228.920898
680.368164	11351.626953
679.170898	11409.555664
677.973633	11156.453125
676.775391	10993.199219
675.577148	11013.614258
674.378906	11042.362305
673.179688	10943.890625
671.980469	10930.942383
670.781250	11065.991211
669.581055	10940.488281
668.381836	10850.460938
667.181641	10683.406250
665.980469	10766.322266
664.780273	10726.362305
663.579102	10524.063477
662.377930	10654.820313
661.175781	10629.475586
659.973633	10572.940430
658.771484	10637.046875
657.569336	10590.929688
656.367188	10711.123047
655.164063	10768.916992
653.960938	10886.934570
652.756836	11046.440430
651.552734	11083.346680
650.348633	11207.436523
649.144531	11296.179688
647.939453	11389.032227
646.735352	11683.095703
645.529297	11414.885742
644.324219	11607.187500
643.118164	11361.923828
641.912109	11516.835938
640.706055	11172.230469
639.499023	11366.479492
638.292969	11084.209961
637.084961	10926.326172
635.877930	10869.967773
634.669922	10811.565430
633.461914	10811.134766
632.253906	10823.118164
631.044922	10671.679688
629.836914	10526.514648
628.626953	10538.552734
627.417969	10486.503906
626.208008	10407.613281
624.998047	10516.778320
623.788086	10528.804688
622.577148	10323.978516
621.366211	10367.013672
620.155273	10317.136719
618.944336	10242.517578
617.732422	10172.058594
616.520508	10318.226563
615.308594	10326.150391
614.095703	10373.245117
612.882813	10436.808594
611.669922	10331.346680
610.457031	10300.108398
609.243164	10349.222656
608.029297	10330.350586
606.815430	10342.371094
605.600586	10175.293945
604.385742	10082.383789
603.170898	10141.775391
601.955078	10108.570313
600.740234	10410.608398
599.524414	10328.006836
598.307617	10309.168945
597.091797	10343.774414
595.875000	10185.219727
594.658203	10414.989258
593.440430	10398.199219
592.222656	10278.751953
591.004883	10327.690430
589.787109	10159.058594
588.568359	10197.741211
587.349609	10207.685547
586.130859	10195.065430
584.912109	10274.719727
583.692383	9925.894531
582.472656	10075.255859
581.251953	10111.850586
580.032227	10218.079102
578.811523	10150.171875
577.589844	10205.150391
576.369141	10401.354492
575.147461	10362.102539
573.925781	10554.084961
572.703125	10631.418945
571.481445	10610.546875
570.258789	10937.288086
569.035156	11002.211914
567.812500	11146.812500
566.588867	11260.696289
565.365234	11552.252930
564.140625	11373.929688
562.916992	11616.318359
561.692383	11489.096680
560.466797	11523.168945
559.242188	11383.784180
558.016602	11197.542969
556.791016	11152.115234
555.564453	10994.559570
554.337891	10667.874023
553.111328	10663.361328
551.884766	10485.650391
550.657227	10373.210938
549.429688	10317.849609
548.202148	10321.563477
546.974609	10197.023438
545.746094	10233.327148
544.517578	10198.395508
543.288086	10200.096680
542.058594	10189.594727
540.829102	10292.964844
539.599609	10217.390625
538.370117	10251.603516
537.139648	10013.515625
535.909180	10061.978516
534.677734	9986.526367
533.446289	10146.651367
532.214844	10000.161133
530.983398	9932.891602
529.750977	10192.344727
528.519531	10023.627930
527.286133	9974.652344
526.053711	10018.973633
524.820313	10004.484375
523.586914	10077.152344
522.353516	10095.076172
521.119141	10139.326172
519.884766	10035.703125
518.650391	10140.693359
517.415039	10033.068359
516.179688	10091.457031
514.944336	10087.090820
513.708984	10048.333984
