#Wave		#Intensity
2109.224609	4601.337402
2107.712891	4604.645508
2106.201172	4590.420898
2104.687500	4619.187012
2103.175781	4634.717285
2101.662109	4580.834473
2100.150391	4665.758301
2098.636719	4679.617188
2097.123047	4607.593262
2095.607422	4609.900879
2094.093750	4617.159668
2092.578125	4522.090820
2091.064453	4587.117188
2089.548828	4591.077148
2088.033203	4608.229980
2086.517578	4575.905762
2085.000000	4662.296875
2083.484375	4583.823730
2081.966797	4625.682129
2080.449219	4624.686035
2078.931641	4516.622559
2077.414063	4637.517090
2075.894531	4536.083008
2074.376953	4625.644531
2072.857422	4606.546387
2071.337891	4559.483398
2069.818359	4594.694824
2068.298828	4613.443848
2066.777344	4513.790527
2065.257813	4613.105957
2063.736328	4533.219238
2062.214844	4629.200684
2060.693359	4605.205566
2059.171875	4681.419434
2057.648438	4580.237793
2056.126953	4492.234375
2054.603516	4561.856934
2053.080078	4588.778809
2051.556641	4587.794922
2050.033203	4544.158691
2048.507813	4612.070801
2046.984375	4548.770508
2045.458984	4626.488770
2043.933594	4627.137207
2042.408203	4722.831543
2040.882813	4630.070801
2039.355469	4615.975098
2037.830078	4605.161133
2036.302734	4502.661133
2034.775391	4652.300293
2033.248047	4713.497070
2031.718750	4612.675781
2030.191406	4583.878906
2028.662109	4577.992188
2027.134766	4567.202148
2025.605469	4623.447266
2024.076172	4589.768555
2022.544922	4618.203613
2021.015625	4627.020020
2019.484375	4627.665527
2017.955078	4602.180176
2016.423828	4576.706055
2014.892578	4539.815430
2013.359375	4622.083496
2011.828125	4653.731934
2010.294922	4690.261719
2008.761719	4593.029297
2007.230469	4632.817383
2005.695313	4682.370605
2004.162109	4638.992188
2002.628906	4527.186523
2001.093750	4529.480469
1999.558594	4600.189941
1998.023438	4579.666504
1996.488281	4614.512695
1994.953125	4460.505371
1993.417969	4576.740723
1991.880859	4668.518555
1990.343750	4512.970703
1988.806641	4578.698242
1987.269531	4535.442871
1985.732422	4698.687988
1984.193359	4619.664551
1982.656250	4625.182129
1981.117188	4627.448242
1979.578125	4681.695801
1978.039063	4596.246094
1976.500000	4681.328613
1974.958984	4576.434570
1973.417969	4645.254395
1971.878906	4754.612793
1970.337891	4649.769531
1968.796875	4648.781738
1967.253906	4524.544922
1965.712891	4577.088867
1964.169922	4660.409180
1962.626953	4575.145020
1961.083984	4669.772461
1959.541016	4670.400879
1957.998047	4580.329590
1956.455078	4527.540039
1954.910156	4576.766602
1953.365234	4540.186035
1951.820313	4569.969727
1950.275391	4578.707520
1948.730469	4642.439453
1947.183594	4617.196289
1945.638672	4640.470215
1944.091797	4655.651855
1942.544922	4674.059082
1940.998047	4639.134766
1939.449219	4594.532715
1937.902344	4533.796875
1936.353516	4602.273926
1934.804688	4525.417480
1933.255859	4537.371582
1931.707031	4594.507324
1930.158203	4603.214844
1928.607422	4623.209961
1927.058594	4609.328613
1925.507813	4592.228027
1923.957031	4652.515137
1922.406250	4622.518066
1920.853516	4715.001465
1919.302734	4470.730957
1917.750000	4526.159668
1916.197266	4573.513184
1914.644531	4604.746094
1913.091797	4597.333008
1911.539063	4562.562988
1909.984375	4576.078613
1908.431641	4713.457520
1906.876953	4553.233398
1905.322266	4666.438965
1903.767578	4741.011719
1902.210938	4640.354492
1900.656250	4526.883789
1899.099609	4527.532715
1897.542969	4515.331055
1895.986328	4630.005859
1894.429688	4595.308594
1892.873047	4620.021484
1891.314453	4580.525391
1889.755859	4574.743164
1888.199219	4580.192871
1886.640625	4665.836914
1885.080078	4671.264648
1883.521484	4610.957031
1881.960938	4533.042480
1880.402344	4530.481445
1878.841797	4558.364258
1877.281250	4559.002930
1875.720703	4522.804688
1874.158203	4560.278320
1872.597656	4597.735840
1871.035156	4622.373047
1869.472656	4642.198730
1867.910156	4623.619629
1866.347656	4641.836914
1864.783203	4596.078613
1863.220703	4697.434570
1861.656250	4590.939941
1860.091797	4562.800781
1858.527344	4553.847656
1856.962891	4573.653320
1855.396484	4523.175293
1853.832031	4544.575195
1852.265625	4564.369629
1850.699219	4700.674805
1849.132813	4579.995605
1847.566406	4547.118652
1845.998047	4651.437988
1844.431641	4546.792969
1842.863281	4531.482422
1841.294922	4589.508301
1839.726563	4639.540527
1838.156250	4651.308594
1836.587891	4578.635742
1835.017578	4673.235840
1833.449219	4632.437988
1831.878906	4607.578125
1830.306641	4630.481445
1828.736328	4753.636230
1827.166016	4700.125977
1825.593750	4673.681152
1824.021484	4702.912598
1822.449219	4569.941406
1820.876953	4677.080078
1819.304688	4679.270996
1817.730469	4597.239746
1816.158203	4677.295410
1814.583984	4693.780273
1813.009766	4616.561035
1811.435547	4714.026367
1809.859375	4670.170898
1808.285156	4675.533203
1806.708984	4584.101563
1805.132813	4613.275391
1803.556641	4605.956543
1801.980469	4633.527344
1800.404297	4688.038086
1798.826172	4759.960938
1797.248047	4638.516113
1795.671875	4712.003418
1794.093750	4722.096680
1792.513672	4789.199707
1790.935547	4732.769531
1789.355469	4810.922852
1787.777344	4775.086914
1786.197266	4740.848145
1784.617188	4727.190430
1783.035156	4683.485352
1781.455078	4701.472656
1779.873047	4679.925781
1778.292969	4712.132324
1776.710938	4750.646484
1775.128906	4768.604004
1773.544922	4783.393555
1771.962891	4867.669922
1770.378906	4775.056641
1768.794922	4762.996582
1767.212891	4746.206543
1765.626953	4751.515625
1764.042969	4698.446777
1762.458984	4749.507813
1760.873047	4879.399414
1759.287109	4774.305176
1757.701172	4752.802734
1756.115234	4832.177246
1754.529297	4828.004395
1752.941406	4841.162598
1751.355469	4997.644531
1749.767578	4853.288574
1748.179688	4916.812500
1746.591797	4851.236816
1745.001953	5001.288574
1743.414063	4976.630371
1741.824219	4950.409180
1740.234375	5009.125488
1738.644531	4931.019531
1737.054688	5044.736816
1735.462891	5174.123047
1733.873047	5097.602051
1732.281250	5016.399414
1730.689453	5046.752930
1729.097656	5133.627930
1727.505859	5076.019531
1725.912109	5142.443848
1724.320313	5222.964844
1722.726563	5137.129883
1721.132813	5252.129395
1719.539063	5334.143555
1717.945313	5118.188477
1716.349609	5225.279297
1714.755859	5189.690430
1713.160156	5146.280762
1711.564453	5306.565918
1709.968750	5314.841309
1708.371094	5395.151855
1706.775391	5163.844238
1705.177734	5366.255371
1703.580078	5255.562500
1701.982422	5412.489746
1700.384766	5268.980957
1698.787109	5397.684570
1697.187500	5421.561035
1695.587891	5293.774902
1693.990234	5423.953613
1692.390625	5449.371094
1690.789063	5543.524902
1689.189453	5468.931152
1687.587891	5567.725586
1685.988281	5569.667969
1684.386719	5607.515137
1682.785156	5581.354004
1681.181641	5625.423340
1679.580078	5669.474121
1677.976563	5771.217773
1676.373047	5769.993652
1674.769531	5905.973145
1673.166016	5973.307129
1671.562500	5986.065918
1669.957031	6114.121094
1668.353516	6173.578125
1666.748047	6181.612793
1665.142578	6304.872559
1663.537109	6373.590820
1661.929688	6437.609863
1660.324219	6576.296875
1658.716797	6724.259277
1657.109375	6699.499023
1655.501953	6651.421387
1653.894531	6870.794434
1652.285156	6920.633789
1650.677734	7034.171875
1649.068359	7040.446777
1647.458984	7133.714844
1645.849609	7261.112305
1644.240234	7267.333496
1642.628906	7368.254883
1641.019531	7341.853516
1639.408203	7434.956055
1637.796875	7495.436035
1636.185547	7510.905273
1634.572266	7821.032715
1632.960938	7785.256836
1631.347656	7741.745117
1629.734375	8028.375488
1628.121094	8269.946289
1626.507813	8141.150391
1624.894531	8337.675781
1623.279297	8402.489258
1621.664063	8459.533203
1620.048828	8674.437500
1618.433594	8661.757813
1616.818359	8817.731445
1615.203125	8885.464844
1613.585938	9019.670898
1611.968750	9357.924805
1610.351563	9304.915039
1608.734375	9533.225586
1607.117188	9554.373047
1605.498047	9600.229492
1603.878906	9731.018555
1602.261719	9840.131836
1600.640625	9817.961914
1599.021484	10081.370117
1597.402344	10065.330078
1595.781250	10090.955078
1594.162109	10040.980469
1592.541016	10026.500000
1590.919922	10070.619141
1589.296875	10068.468750
1587.675781	10118.723633
1586.052734	10091.907227
1584.429688	10166.785156
1582.806641	10127.645508
1581.183594	10268.702148
1579.560547	10414.316406
1577.935547	10224.291016
1576.312500	10259.042969
1574.687500	10229.153320
1573.062500	10336.189453
1571.435547	10303.219727
1569.810547	10500.916016
1568.183594	10334.171875
1566.558594	10328.887695
1564.931641	10088.488281
1563.304688	9940.373047
1561.675781	9968.966797
1560.048828	9685.795898
1558.419922	9737.461914
1556.791016	9684.719727
1555.162109	9630.464844
1553.533203	9571.628906
1551.904297	9693.838867
1550.273438	9653.417969
1548.642578	9767.889648
1547.011719	9718.270508
1545.380859	9604.295898
1543.750000	9732.494141
1542.119141	9558.810547
1540.486328	9604.246094
1538.853516	9646.598633
1537.220703	9612.375000
1535.587891	9262.823242
1533.955078	9046.570313
1532.320313	8954.350586
1530.685547	9012.090820
1529.052734	8747.085938
1527.416016	8720.741211
1525.781250	8695.935547
1524.146484	8689.482422
1522.509766	8540.911133
1520.873047	8574.216797
1519.236328	8631.946289
1517.599609	8485.008789
1515.962891	8619.074219
1514.324219	8678.282227
1512.687500	8482.588867
1511.048828	8549.427734
1509.410156	8497.246094
1507.771484	8388.652344
1506.130859	8249.607422
1504.492188	8224.963867
1502.851563	8157.651367
1501.210938	8161.990234
1499.570313	8042.917480
1497.927734	7955.883301
1496.287109	7849.088379
1494.644531	7716.454590
1493.001953	7669.124023
1491.359375	7676.602051
1489.716797	7468.009277
1488.074219	7512.037109
1486.429688	7273.149414
1484.785156	7378.023438
1483.140625	7425.081055
1481.496094	7307.961426
1479.851563	7417.316895
1478.207031	7394.445313
1476.560547	7567.530762
1474.914063	7652.459473
1473.267578	7584.000000
1471.621094	7609.685547
1469.972656	7621.700195
1468.326172	7829.444824
1466.677734	7976.418945
1465.029297	7997.444336
1463.380859	8318.697266
1461.732422	8372.990234
1460.082031	8409.071289
1458.431641	8440.589844
1456.783203	8246.353516
1455.132813	8023.420410
1453.480469	8062.571777
1451.830078	7739.846191
1450.177734	7685.188965
1448.527344	7526.130859
1446.875000	7468.516113
1445.220703	7560.687500
1443.568359	7371.509277
1441.916016	7437.955078
1440.261719	7321.448242
1438.607422	7254.868652
1436.953125	7301.649902
1435.298828	7300.065918
1433.642578	7248.636719
1431.988281	7164.006348
1430.332031	6958.629395
1428.675781	7130.706543
1427.019531	7079.355957
1425.361328	7068.765137
1423.705078	7077.788574
1422.046875	7231.589844
1420.388672	7204.384766
1418.730469	7202.818359
1417.072266	7263.045898
1415.412109	7386.533691
1413.753906	7205.651367
1412.093750	7244.750488
1410.433594	7115.175781
1408.773438	7075.988770
1407.111328	7097.025879
1405.451172	7227.909180
1403.789063	7220.316406
1402.126953	7561.704590
1400.464844	7642.770996
1398.802734	7565.926758
1397.138672	7559.767578
1395.474609	7398.811035
1393.812500	7577.506348
1392.146484	7478.207031
1390.482422	7422.505859
1388.818359	7450.917969
1387.152344	7290.157227
1385.486328	7423.649902
1383.820313	7298.978516
1382.154297	7397.902832
1380.488281	7523.783203
1378.820313	7414.165527
1377.154297	7364.567383
1375.486328	7593.798828
1373.818359	7422.791504
1372.148438	7551.521484
1370.480469	7513.917969
1368.810547	7504.785156
1367.140625	7531.592285
1365.470703	7514.973145
1363.800781	7441.487305
1362.130859	7532.631348
1360.458984	7486.100586
1358.787109	7577.193359
1357.115234	7578.523438
1355.443359	7503.604980
1353.771484	7591.642578
1352.097656	7751.371582
1350.423828	7966.309570
1348.751953	8031.779297
1347.076172	8261.494141
1345.402344	8406.001953
1343.728516	8669.865234
1342.052734	9027.633789
1340.376953	9267.369141
1338.701172	9436.885742
1337.025391	9645.104492
1335.347656	9811.479492
1333.671875	10067.227539
1331.994141	10196.173828
1330.316406	10427.880859
1328.638672	10526.892578
1326.960938	10597.560547
1325.281250	10568.422852
1323.601563	10320.442383
1321.921875	10182.718750
1320.242188	10049.518555
1318.562500	9782.470703
1316.880859	9607.765625
1315.201172	9392.982422
1313.519531	9297.240234
1311.837891	8954.778320
1310.154297	8774.460938
1308.472656	8689.317383
1306.789063	8525.476563
1305.105469	8311.210938
1303.421875	8190.585938
1301.738281	7912.651367
1300.054688	7936.135742
1298.369141	7769.670410
1296.683594	7637.399902
1294.998047	7626.812988
1293.312500	7300.369629
1291.626953	7500.386719
1289.939453	7308.999512
1288.253906	7319.238281
1286.566406	7154.643066
1284.878906	7130.840820
1283.189453	7118.895508
1281.501953	7068.458984
1279.812500	7149.790039
1278.123047	7062.368652
1276.433594	7177.694824
1274.744141	7272.259277
1273.052734	7131.623535
1271.363281	6985.134766
1269.671875	6965.845703
1267.980469	7027.854492
1266.289063	6993.786621
1264.595703	6947.914551
1262.904297	6924.217285
1261.210938	6910.866699
1259.517578	6994.960449
1257.824219	6745.434570
1256.128906	6853.137207
1254.435547	6748.338379
1252.740234	6801.415039
1251.044922	6776.307617
1249.349609	6709.927734
1247.652344	6767.397461
1245.957031	6820.419922
1244.259766	6823.322266
1242.562500	6755.515137
1240.865234	6759.901855
1239.167969	6631.768555
1237.468750	6562.575684
1235.769531	6546.395508
1234.072266	6497.851074
1232.371094	6565.544434
1230.671875	6528.782227
1228.972656	6522.914551
1227.271484	6459.714844
1225.570313	6506.776855
1223.869141	6399.522949
1222.167969	6381.934082
1220.464844	6282.098633
1218.763672	6310.065430
1217.060547	6374.723145
1215.357422	6263.211914
1213.654297	6257.409668
1211.949219	6314.697754
1210.246094	6181.270020
1208.541016	6289.875977
1206.835938	6210.761230
1205.130859	6303.186523
1203.423828	6127.377930
1201.718750	6140.658203
1200.011719	6155.396973
1198.304688	6079.326660
1196.597656	6282.955078
1194.888672	6152.725098
1193.181641	6309.410645
1191.472656	6264.099609
1189.763672	6404.596680
1188.054688	6413.398438
1186.343750	6341.771484
1184.634766	6192.694824
1182.923828	6119.687012
1181.212891	6162.150879
1179.501953	6046.814453
1177.791016	6039.613770
1176.078125	6128.794434
1174.365234	5988.721680
1172.652344	6003.431641
1170.939453	5981.651855
1169.226563	6040.124512
1167.511719	6059.187012
1165.798828	5907.617676
1164.083984	6044.796875
1162.369141	5837.906738
1160.652344	5868.653809
1158.937500	5852.762207
1157.220703	5809.200684
1155.503906	5807.892090
1153.787109	5812.407227
1152.070313	5736.857422
1150.351563	5793.778320
1148.632813	5684.799316
1146.916016	5683.517090
1145.195313	5718.594238
1143.476563	5647.509766
1141.757813	5644.781250
1140.037109	5508.341797
1138.316406	5547.783691
1136.595703	5654.032715
1134.875000	5674.541504
1133.152344	5772.000000
1131.429688	5775.050781
1129.708984	5818.738770
1127.984375	5993.005371
1126.261719	5998.903320
1124.539063	5849.602051
1122.814453	5613.360840
1121.089844	5516.404785
1119.365234	5275.996582
1117.640625	5215.388184
1115.914063	5267.812012
1114.187500	5220.267578
1112.462891	5133.644531
1110.734375	5089.046875
1109.007813	5080.655273
1107.281250	5062.137207
1105.552734	5000.222656
1103.824219	5096.003418
1102.095703	5048.569336
1100.367188	5076.340332
1098.636719	5130.117188
1096.908203	5078.370605
1095.177734	5094.555176
1093.447266	4960.501465
1091.714844	4979.592773
1089.984375	4962.578613
1088.251953	5029.296387
1086.519531	5018.050293
1084.787109	4882.720703
1083.054688	4971.048340
1081.320313	4956.937012
1079.585938	4913.993652
1077.851563	5032.524902
1076.117188	4832.487305
1074.382813	4906.314453
1072.648438	5042.052246
1070.912109	5026.500488
1069.175781	4964.877930
1067.439453	4995.416992
1065.701172	4890.650391
1063.964844	4947.092285
1062.226563	4911.437012
1060.488281	4983.668945
1058.750000	4933.640625
1057.011719	5025.960449
1055.271484	4945.760742
1053.531250	4981.992676
1051.791016	5006.713867
1050.050781	4844.702148
1048.310547	4959.910156
1046.568359	4947.290527
1044.826172	4910.275879
1043.083984	4884.757813
1041.341797	4902.291016
1039.599609	4898.300781
1037.855469	4861.329102
1036.113281	4923.298340
1034.369141	5028.239746
1032.623047	5017.057129
1030.878906	5152.014648
1029.132813	5092.106934
1027.386719	5072.322754
1025.640625	4989.552246
1023.894531	5092.899902
1022.148438	5020.178223
1020.400391	5010.442383
1018.652344	4997.849121
1016.904297	5062.485840
1015.156250	5015.571777
1013.406250	5022.996582
1011.658203	5046.137695
1009.908203	5067.838867
1008.158203	5083.815918
1006.408203	5119.778320
1004.656250	5098.612305
1002.904297	5157.393555
1001.152344	5261.814453
999.400391	5273.445313
997.648438	5310.747070
995.896484	5303.820313
994.142578	5134.353516
992.388672	5059.046387
990.634766	5153.366699
988.878906	5115.134277
987.125000	5071.221191
985.369141	5042.993164
983.613281	4979.181641
981.857422	4879.811523
980.099609	4853.068848
978.343750	4883.252441
976.585938	4818.112305
974.828125	4785.711914
973.070313	4665.170410
971.310547	4733.749023
969.552734	4650.225586
967.792969	4698.882813
966.033203	4689.274414
964.273438	4769.144043
962.511719	4739.644043
960.750000	4889.023926
958.990234	4927.632813
957.226563	4978.993164
955.464844	4914.004883
953.703125	4942.651855
951.939453	4849.342285
950.175781	4709.294922
948.412109	4655.765137
946.648438	4588.090820
944.882813	4602.610840
943.117188	4610.042969
941.351563	4565.080078
939.585938	4558.359375
937.820313	4557.303223
936.052734	4462.857910
934.285156	4608.947266
932.517578	4452.302246
930.750000	4527.625488
928.982422	4508.197266
927.212891	4395.497070
925.443359	4417.085449
923.673828	4311.520996
921.904297	4334.529785
920.132813	4395.652832
918.361328	4459.569824
916.591797	4404.901855
914.818359	4348.847168
913.046875	4378.872070
911.275391	4360.929688
909.501953	4371.195801
907.728516	4435.027344
905.955078	4367.753418
904.179688	4404.782227
902.406250	4419.253418
900.630859	4621.038086
898.855469	4587.575684
897.080078	4493.595215
895.302734	4486.918457
893.525391	4423.960449
891.750000	4414.489258
889.970703	4578.015625
888.193359	4527.734375
886.416016	4623.678711
884.636719	4661.954102
882.857422	4634.168945
881.078125	4437.818359
879.296875	4353.917969
877.517578	4358.518555
875.736328	4321.001953
873.955078	4315.782715
872.173828	4314.774902
870.390625	4270.278809
868.609375	4302.941895
866.826172	4296.327637
865.042969	4314.950195
863.259766	4299.926270
861.474609	4390.000000
859.689453	4332.937988
857.904297	4478.983398
856.119141	4357.516113
854.333984	4289.301270
852.546875	4284.099121
850.761719	4320.875977
848.974609	4318.465820
847.185547	4278.293945
845.398438	4257.716797
843.609375	4262.311035
841.822266	4285.072266
840.031250	4309.219238
838.242188	4336.148438
836.453125	4238.765137
834.662109	4355.060547
832.871094	4330.308105
831.080078	4362.788086
829.289063	4372.927246
827.496094	4377.481445
825.703125	4373.665039
823.910156	4428.412109
822.117188	4465.011230
820.324219	4373.373535
818.529297	4369.560059
816.734375	4411.717773
814.939453	4297.873047
813.144531	4379.013184
811.347656	4301.421875
809.550781	4273.968262
807.755859	4291.051758
805.957031	4255.266602
804.160156	4273.736328
802.361328	4307.491699
800.564453	4295.357910
798.765625	4277.670410
796.964844	4183.571777
795.166016	4236.762695
793.365234	4224.655273
791.564453	4204.222168
789.763672	4340.656738
787.962891	4234.162109
786.160156	4209.577637
784.359375	4115.647949
782.556641	4154.895508
780.751953	4177.486816
778.949219	4186.205566
777.144531	4042.478027
775.339844	3993.032227
773.535156	4039.186768
771.730469	4144.868164
769.925781	4095.431885
768.119141	4070.934326
766.312500	3986.941406
764.505859	4106.369141
762.697266	4127.531738
760.890625	4096.133301
759.082031	4113.139648
757.273438	4103.875000
755.464844	4046.247559
753.654297	4061.870850
751.845703	4146.549316
750.035156	4152.474609
748.224609	4245.374512
746.412109	4376.878418
744.601563	4497.280273
742.789063	4646.596680
740.976563	4932.393066
739.164063	5609.684082
737.349609	6380.402344
735.537109	7466.392578
733.722656	8664.864258
731.908203	9286.900391
730.091797	9144.212891
728.277344	8286.917969
726.460938	7198.742676
724.644531	6102.824219
722.828125	5361.067383
721.009766	5037.879883
719.193359	4721.721680
717.375000	4649.099609
715.556641	4489.902832
713.736328	4295.046387
711.917969	4272.042969
710.097656	4291.636719
708.277344	4356.544434
706.457031	4395.331543
704.636719	4372.324707
702.814453	4313.644531
700.992188	4316.737793
699.169922	4333.547363
697.347656	4217.314453
695.523438	4173.807617
693.699219	4229.021484
691.875000	4302.024902
690.050781	4288.672363
688.226563	4305.461914
686.400391	4318.135254
684.574219	4208.942383
682.748047	4250.377930
680.921875	4220.628906
679.095703	4256.568359
677.267578	4277.443359
675.439453	4197.107422
673.611328	4178.335449
671.781250	4178.709473
669.953125	4161.316895
668.123047	4235.472656
666.292969	4204.414551
664.460938	4364.559570
662.630859	4292.525391
660.798828	4417.083008
658.966797	4325.964844
657.134766	4391.788086
655.302734	4415.294922
653.468750	4500.156250
651.634766	4430.917480
649.800781	4502.103516
647.966797	4451.974609
646.130859	4529.932617
644.294922	4532.940430
642.458984	4395.687500
640.623047	4410.977539
638.787109	4446.676270
636.949219	4395.268555
635.111328	4402.384277
633.273438	4454.379883
631.435547	4367.651855
629.595703	4392.440918
627.757813	4500.125488
625.917969	4439.264648
624.076172	4491.187988
622.236328	4419.492188
620.394531	4407.575684
618.552734	4284.347656
616.710938	4159.820313
614.869141	4287.731934
613.025391	4227.020508
611.183594	4182.613281
609.339844	4169.412109
607.494141	4040.992432
605.650391	4015.633545
603.804688	4056.678467
601.958984	4024.554199
600.113281	4098.079590
598.267578	3965.766602
596.419922	4008.136475
594.572266	3946.280273
592.724609	3868.217285
590.876953	3936.280029
589.027344	3924.521240
587.179688	3915.471680
585.330078	3871.281982
583.480469	3874.411621
581.628906	3843.762695
579.779297	3909.030518
577.927734	3870.284912
576.076172	3966.566895
574.222656	3849.538818
572.371094	3933.634033
570.517578	3969.120361
568.664063	3904.778076
566.810547	3897.102295
564.955078	3871.903809
563.101563	3927.587402
561.246094	4011.541504
559.390625	3913.584717
557.533203	3913.995850
555.677734	3865.930908
553.820313	3881.160889
551.962891	3932.722900
550.105469	3892.760498
548.246094	3946.984863
546.386719	4010.597656
544.527344	3969.299805
542.667969	3979.104736
540.808594	4073.574463
538.947266	3970.482666
537.085938	3906.396240
535.224609	3877.258301
533.363281	3892.442627
531.500000	3780.094971
529.638672	3761.743652
527.775391	3701.807617
525.910156	3776.040039
524.046875	3856.941895
522.181641	4146.962891
520.316406	4371.163574
518.451172	4283.009766
516.585938	3983.209961
514.718750	3779.995605
512.851563	3657.227539
510.984375	3638.947021
509.117188	3647.445313
507.250000	3590.367676
505.380859	3558.736816
503.511719	3589.985840
501.642578	3585.114258
499.771484	3574.897217
497.902344	3610.128906
496.031250	3537.105713
494.160156	3623.094971
492.287109	3550.103271
490.416016	3567.947021
488.542969	3559.082275
486.669922	3523.528320
484.796875	3520.015381
482.921875	3473.815186
481.046875	3528.998779
479.171875	3497.485107
477.296875	3527.307861
475.421875	3493.143799
473.544922	3537.609619
471.667969	3411.543213
469.791016	3509.278320
467.914063	3453.846924
466.035156	3516.914795
464.156250	3528.049561
462.277344	3541.839844
460.398438	3513.056885
458.519531	3474.978271
456.638672	3516.691406
454.757813	3466.666504
452.876953	3463.177979
450.994141	3494.234375
449.113281	3393.775391
447.230469	3418.193604
445.347656	3396.131836
443.462891	3494.867920
441.580078	3541.802734
439.695313	3493.192871
437.810547	3464.501465
435.925781	3522.017822
434.039063	3494.658936
432.152344	3542.862061
430.267578	3487.683594
428.378906	3486.847656
426.492188	3437.006348
424.603516	3473.259033
422.714844	3473.750244
420.826172	3402.771240
418.937500	3548.831299
417.046875	3497.710938
415.158203	3409.583252
413.265625	3366.453857
411.375000	3418.524414
409.484375	3456.032227
407.591797	3338.929443
405.699219	3375.116699
403.806641	3300.350586
401.912109	3378.780762
400.019531	3347.610352
