#Wave		#Intensity
1585.210938	14863.490234
1584.209961	14846.006836
1583.208984	15017.730469
1582.208008	14797.413086
1581.206055	14874.222656
1580.204102	14941.017578
1579.202148	15027.744141
1578.200195	14827.562500
1577.198242	15061.423828
1576.195313	14888.745117
1575.192383	14900.619141
1574.189453	14900.025391
1573.186523	14857.067383
1572.182617	14809.144531
1571.178711	14569.438477
1570.174805	14486.728516
1569.170898	14715.288086
1568.166992	14794.390625
1567.162109	14520.040039
1566.158203	14698.682617
1565.153320	14817.542969
1564.147461	14841.834961
1563.142578	14791.511719
1562.136719	14569.655273
1561.130859	14884.817383
1560.125000	14581.019531
1559.119141	14396.613281
1558.113281	14408.538086
1557.106445	14537.191406
1556.099609	14377.739258
1555.092773	14578.342773
1554.084961	14510.788086
1553.078125	14329.104492
1552.070313	14308.769531
1551.062500	14474.489258
1550.054688	14379.728516
1549.045898	14277.567383
1548.038086	14192.800781
1547.029297	14564.127930
1546.020508	14231.529297
1545.011719	14270.701172
1544.001953	14443.617188
1542.992188	14153.349609
1541.982422	14140.514648
1540.972656	14397.514648
1539.962891	14263.359375
1538.952148	14245.559570
1537.942383	14225.292969
1536.931641	14341.073242
1535.919922	14236.713867
1534.909180	14377.166992
1533.897461	14159.132813
1532.886719	14314.371094
1531.874023	14346.000000
1530.862305	14155.281250
1529.850586	14424.036133
1528.837891	14364.253906
1527.825195	14294.621094
1526.812500	14306.471680
1525.799805	14264.023438
1524.786133	14152.508789
1523.772461	14179.179688
1522.758789	14030.732422
1521.745117	14091.937500
1520.731445	14066.832031
1519.716797	14211.804688
1518.702148	14152.183594
1517.687500	14038.384766
1516.672852	14227.609375
1515.657227	13953.764648
1514.642578	14083.833984
1513.626953	14172.000000
1512.610352	13873.722656
1511.594727	14129.220703
1510.579102	13882.737305
1509.562500	14347.197266
1508.545898	14007.322266
1507.529297	13864.278320
1506.511719	14136.716797
1505.494141	14096.924805
1504.477539	14165.260742
1503.458984	13982.994141
1502.441406	14068.516602
1501.423828	13869.155273
1500.405273	13979.215820
1499.386719	13976.320313
1498.368164	14007.781250
1497.348633	13720.266602
1496.330078	14154.065430
1495.310547	14138.870117
1494.291016	13949.586914
1493.271484	13954.050781
1492.250977	13858.020508
1491.231445	13735.074219
1490.210938	13891.477539
1489.190430	13869.001953
1488.168945	13743.678711
1487.148438	13924.465820
1486.126953	13681.678711
1485.105469	13894.219727
1484.083984	13920.703125
1483.061523	13812.620117
1482.040039	13912.485352
1481.017578	13804.448242
1479.995117	13909.162109
1478.971680	14131.165039
1477.949219	14140.454102
1476.925781	13971.371094
1475.902344	13985.574219
1474.878906	13858.112305
1473.855469	14197.101563
1472.831055	14213.688477
1471.806641	14147.277344
1470.782227	14115.058594
1469.757813	14114.570313
1468.733398	14338.502930
1467.708008	14491.614258
1466.682617	14249.650391
1465.657227	14205.250977
1464.631836	14377.791016
1463.605469	14228.598633
1462.579102	14298.735352
1461.552734	14439.480469
1460.526367	14658.096680
1459.500000	14669.663086
1458.472656	14603.327148
1457.445313	14580.825195
1456.417969	14701.896484
1455.390625	14603.965820
1454.362305	14970.639648
1453.334961	14692.741211
1452.306641	14769.922852
1451.277344	14805.748047
1450.249023	14938.767578
1449.219727	14797.169922
1448.191406	14942.280273
1447.162109	14842.027344
1446.131836	14824.375000
1445.102539	14979.097656
1444.072266	15000.258789
1443.041992	14926.766602
1442.011719	15154.156250
1440.981445	15204.373047
1439.950195	14965.968750
1438.918945	15108.340820
1437.887695	15202.168945
1436.856445	15242.635742
1435.825195	15404.244141
1434.792969	15229.031250
1433.760742	15153.199219
1432.728516	15101.615234
1431.696289	15025.839844
1430.663086	14616.041992
1429.629883	14513.775391
1428.596680	14583.346680
1427.563477	14447.259766
1426.530273	14320.902344
1425.496094	14233.288086
1424.461914	14194.062500
1423.427734	14179.023438
1422.393555	14214.739258
1421.358398	13946.004883
1420.323242	14344.099609
1419.288086	14140.658203
1418.252930	14241.543945
1417.217773	14315.832031
1416.181641	14129.415039
1415.145508	14396.744141
1414.109375	14369.620117
1413.073242	14217.076172
1412.036133	14419.103516
1411.000000	13977.276367
1409.962891	14270.871094
1408.924805	14154.623047
1407.887695	14122.758789
1406.849609	14013.815430
1405.812500	14196.359375
1404.773438	14414.946289
1403.735352	14310.823242
1402.697266	14189.892578
1401.658203	14338.550781
1400.619141	14179.165039
1399.580078	14363.845703
1398.540039	14579.714844
1397.500977	14405.948242
1396.460938	14386.115234
1395.420898	14359.079102
1394.380859	14351.278320
1393.339844	14381.920898
1392.298828	14393.333008
1391.257813	14294.265625
1390.216797	14308.090820
1389.175781	14302.704102
1388.133789	14424.524414
1387.091797	14575.086914
1386.049805	14116.217773
1385.007813	14278.773438
1383.964844	14103.129883
1382.922852	14176.907227
1381.879883	14159.564453
1380.835938	14192.555664
1379.792969	14414.823242
1378.749023	14241.725586
1377.706055	14066.304688
1376.661133	14084.916992
1375.617188	14065.214844
1374.573242	14208.283203
1373.528320	14348.898438
1372.483398	14085.108398
1371.438477	14084.555664
1370.392578	14028.996094
1369.347656	14064.319336
1368.301758	13982.489258
1367.255859	13960.444336
1366.208984	14026.822266
1365.163086	13983.273438
1364.116211	14042.450195
1363.069336	14113.542969
1362.022461	13931.520508
1360.974609	13890.412109
1359.927734	13951.941406
1358.879883	14039.692383
1357.832031	14000.968750
1356.783203	14102.980469
1355.735352	13894.953125
1354.686523	14094.690430
1353.637695	13986.860352
1352.588867	13974.397461
1351.539063	13780.863281
1350.490234	13751.772461
1349.440430	13822.719727
1348.390625	13936.496094
1347.339844	14176.394531
1346.290039	13842.590820
1345.239258	13842.067383
1344.188477	13927.191406
1343.137695	13810.098633
1342.085938	13854.763672
1341.034180	13775.774414
1339.982422	13915.509766
1338.930664	13760.487305
1337.878906	13693.445313
1336.826172	13768.965820
1335.773438	13922.833008
1334.720703	13846.296875
1333.667969	13788.786133
1332.614258	13731.297852
1331.561523	13830.457031
1330.507813	13673.333008
1329.453125	13874.461914
1328.399414	13710.277344
1327.344727	13700.283203
1326.290039	13972.395508
1325.235352	13938.647461
1324.180664	13935.717773
1323.125000	13939.895508
1322.070313	13946.438477
1321.014648	13993.236328
1319.958008	14115.777344
1318.902344	14112.808594
1317.845703	13986.775391
1316.789063	14019.324219
1315.732422	13969.061523
1314.675781	13857.325195
1313.618164	14242.208984
1312.560547	14236.846680
1311.502930	14248.031250
1310.445313	14162.321289
1309.386719	14268.020508
1308.329102	14210.685547
1307.270508	14408.432617
1306.210938	14339.284180
1305.152344	14435.410156
1304.092773	14182.191406
1303.033203	14278.307617
1301.973633	14447.516602
1300.914063	14534.100586
1299.853516	14476.797852
1298.792969	14582.197266
1297.732422	14567.335938
1296.671875	14538.339844
1295.611328	14179.489258
1294.549805	14390.864258
1293.488281	14661.028320
1292.426758	14394.208984
1291.364258	14179.292969
1290.302734	14131.579102
1289.240234	14250.960938
1288.177734	14349.117188
1287.114258	14244.941406
1286.051758	14074.960938
1284.988281	14262.435547
1283.924805	14080.767578
1282.861328	14298.711914
1281.796875	14161.754883
1280.732422	14139.966797
1279.667969	14195.695313
1278.603516	14068.237305
1277.539063	13954.917969
1276.473633	13987.174805
1275.408203	13700.259766
1274.342773	14114.992188
1273.277344	14018.174805
1272.210938	13858.076172
1271.145508	13798.868164
1270.079102	13730.307617
1269.011719	13678.181641
1267.945313	13902.581055
1266.877930	13726.271484
1265.810547	13692.913086
1264.743164	13680.644531
1263.674805	13408.499023
1262.607422	13513.333008
1261.539063	13451.960938
1260.470703	13449.108398
1259.401367	13371.399414
1258.333008	13543.973633
1257.263672	13396.125977
1256.194336	13641.090820
1255.125000	13455.885742
1254.054688	13455.367188
1252.985352	13464.193359
1251.915039	13342.208008
1250.843750	13360.392578
1249.773438	13490.640625
1248.702148	13611.495117
1247.630859	13433.566406
1246.559570	13342.044922
1245.488281	13493.177734
1244.416016	13350.369141
1243.343750	13314.885742
1242.271484	13349.356445
1241.199219	13227.644531
1240.125977	13406.599609
1239.053711	13201.049805
1237.980469	13277.440430
1236.906250	13318.864258
1235.833008	13483.672852
1234.758789	13483.131836
1233.684570	13477.933594
1232.610352	13342.431641
1231.536133	13353.548828
1230.460938	13490.258789
1229.385742	13294.375977
1228.310547	13517.060547
1227.235352	13335.200195
1226.159180	13313.767578
1225.083008	13285.372070
1224.006836	13442.822266
1222.930664	13414.409180
1221.853516	13425.479492
1220.777344	13592.082031
1219.700195	13389.581055
1218.622070	13273.021484
1217.544922	13291.068359
1216.466797	13360.135742
1215.388672	13505.698242
1214.310547	13634.967773
1213.232422	13513.838867
1212.153320	13694.034180
1211.074219	13445.507813
1209.995117	13792.426758
1208.916016	13594.934570
1207.835938	13425.313477
1206.755859	13582.178711
1205.675781	13477.436523
1204.595703	13338.027344
1203.514648	13284.277344
1202.434570	13401.713867
1201.353516	13361.845703
1200.271484	13289.625977
1199.190430	13298.338867
1198.108398	13487.310547
1197.026367	13165.565430
1195.944336	13391.443359
1194.862305	13363.169922
1193.779297	13157.109375
1192.696289	13198.153320
1191.613281	13220.714844
1190.530273	13300.955078
1189.446289	13208.126953
1188.362305	13696.601563
1187.278320	13285.484375
1186.194336	13591.586914
1185.109375	13289.006836
1184.024414	13454.393555
1182.939453	13115.103516
1181.854492	13409.458008
1180.768555	13243.056641
1179.683594	13553.374023
1178.597656	13462.982422
1177.510742	13239.131836
1176.424805	13252.396484
1175.337891	13155.221680
1174.250977	12970.681641
1173.164063	13213.959961
1172.077148	13084.665039
1170.989258	13261.149414
1169.901367	13180.160156
1168.813477	13227.875000
1167.724609	13078.007813
1166.636719	13162.469727
1165.547852	12932.312500
1164.458984	13067.272461
1163.369141	13034.622070
1162.280273	13018.047852
1161.190430	12957.888672
1160.100586	13159.241211
1159.010742	12956.893555
1157.919922	13075.619141
1156.829102	13004.033203
1155.738281	12930.185547
1154.647461	13211.517578
1153.555664	12988.753906
1152.464844	12914.954102
1151.373047	13058.715820
1150.280273	13158.917969
1149.188477	12984.417969
1148.095703	12942.714844
1147.002930	12971.951172
1145.910156	13033.196289
1144.817383	12877.165039
1143.723633	13162.462891
1142.629883	13175.621094
1141.536133	13099.643555
1140.441406	13176.783203
1139.347656	13048.295898
1138.252930	13054.611328
1137.158203	12914.787109
1136.062500	12900.580078
1134.967773	13100.922852
1133.872070	13047.887695
1132.776367	13241.265625
1131.679688	13074.175781
1130.583984	13454.456055
1129.487305	13497.142578
1128.390625	13539.809570
1127.292969	13498.135742
1126.196289	13397.239258
1125.098633	13339.666992
1124.000977	13175.078125
1122.903320	13342.995117
1121.804688	13230.833008
1120.706055	13014.023438
1119.607422	13138.628906
1118.508789	13067.530273
1117.409180	13030.579102
1116.310547	12884.490234
1115.210938	13065.848633
1114.110352	12769.794922
1113.010742	12794.293945
1111.910156	12727.899414
1110.809570	12754.666016
1109.708984	12806.401367
1108.607422	12712.797852
1107.506836	12809.918945
1106.405273	12675.500977
1105.303711	12661.401367
1104.201172	12749.391602
1103.098633	12719.403320
1101.996094	12898.044922
1100.893555	12716.139648
1099.791016	12822.169922
1098.687500	12681.148438
1097.583984	12834.716797
1096.480469	12913.467773
1095.376953	12858.570313
1094.272461	12925.958984
1093.167969	12864.289063
1092.063477	12832.066406
1090.958008	12971.819336
1089.853516	12901.127930
1088.748047	12712.859375
1087.642578	12750.790039
1086.536133	12937.907227
1085.430664	12770.092773
1084.324219	12968.420898
1083.217773	13008.517578
1082.110352	13077.958008
1081.003906	13052.522461
1079.896484	12970.653320
1078.789063	13033.282227
1077.680664	12870.208008
1076.573242	13068.204102
1075.464844	12857.820313
1074.356445	12954.243164
1073.247070	13070.916016
1072.138672	12953.091797
1071.029297	13022.381836
1069.919922	12942.922852
1068.809570	12973.884766
1067.700195	12937.262695
1066.589844	12950.196289
1065.479492	13068.934570
1064.368164	12924.272461
1063.257813	13015.958984
1062.146484	12860.120117
1061.035156	13048.500000
1059.922852	12825.253906
1058.811523	12725.765625
1057.699219	12963.500977
1056.586914	12942.681641
1055.473633	12717.403320
1054.361328	12784.253906
1053.248047	12837.599609
1052.134766	12839.275391
1051.021484	12778.092773
1049.907227	12721.423828
1048.792969	12808.390625
1047.678711	12637.321289
1046.564453	12690.622070
1045.449219	12862.748047
1044.333984	12759.036133
1043.218750	12758.475586
1042.103516	12480.033203
1040.987305	12645.329102
1039.871094	12631.350586
1038.754883	12711.436523
1037.638672	12838.505859
1036.521484	12802.105469
1035.404297	12808.243164
1034.287109	12885.978516
1033.169922	12941.307617
1032.051758	12725.988281
1030.933594	12635.981445
1029.815430	12814.282227
1028.697266	12775.700195
1027.578125	12795.233398
1026.458984	12794.650391
1025.339844	12564.004883
1024.220703	12695.224609
1023.100586	12703.590820
1021.980469	12785.612305
1020.860352	12677.908203
1019.740234	12574.711914
1018.619141	12609.860352
1017.498047	12591.468750
1016.376953	12477.208984
1015.255859	12697.374023
1014.133789	12498.448242
1013.011719	12379.824219
1011.889648	12539.713867
1010.767578	12463.448242
1009.644531	12471.830078
1008.521484	12393.383789
1007.398438	12639.928711
1006.274414	12294.449219
1005.151367	12585.399414
1004.027344	12876.219727
1002.902344	13002.352539
1001.778320	12912.770508
1000.653320	13176.648438
999.528320	12898.170898
998.403320	13146.380859
997.278320	12796.948242
996.152344	12514.293945
995.026367	12527.067383
993.900391	12633.065430
992.773438	12437.186523
991.646484	12456.620117
990.519531	12489.355469
989.392578	12431.142578
988.265625	12361.866211
987.137695	12501.007813
986.009766	12504.886719
984.881836	12426.773438
983.752930	12350.910156
982.624023	12332.666016
981.495117	12316.644531
980.366211	12322.767578
979.236328	12501.536133
978.106445	12419.095703
976.976563	12389.789063
975.846680	12444.549805
974.715820	12342.270508
973.585938	12505.353516
972.454102	12403.103516
971.323242	12493.167969
970.191406	12371.078125
969.060547	12531.796875
967.927734	12440.669922
966.795898	12400.367188
965.663086	12552.138672
964.530273	12511.827148
963.397461	12460.499023
962.264648	12429.047852
961.130859	12651.252930
959.997070	12544.796875
958.863281	12647.826172
957.729492	12550.233398
956.594727	12670.841797
955.459961	12577.691406
954.325195	12425.109375
953.189453	12583.098633
952.053711	12657.352539
950.917969	12502.650391
949.782227	12557.081055
948.646484	12835.906250
947.509766	12500.888672
946.373047	12550.881836
945.235352	12675.607422
944.098633	12857.430664
942.960938	12927.086914
941.823242	12761.605469
940.685547	12835.643555
939.546875	12918.431641
938.408203	12796.975586
937.269531	12767.773438
936.129883	12841.739258
934.991211	12849.841797
933.851563	12763.605469
932.711914	13021.757813
931.571289	12823.684570
930.431641	12746.278320
929.291016	12815.758789
928.149414	12955.331055
927.008789	13022.541016
925.867188	13162.001953
924.725586	13034.233398
923.583984	13005.042969
922.441406	12822.640625
921.299805	12756.305664
920.157227	12937.235352
919.013672	12816.215820
917.871094	12655.884766
916.727539	12628.998047
915.583984	12621.796875
914.439453	12439.757813
913.295898	12624.878906
912.151367	12663.553711
911.006836	12665.082031
909.861328	12815.088867
908.716797	12783.833984
907.571289	12549.617188
906.424805	12599.169922
905.279297	12694.512695
904.132813	12687.300781
902.986328	12756.412109
901.839844	12709.946289
900.692383	12903.255859
899.545898	12763.073242
898.398438	12880.030273
897.250000	12888.027344
896.102539	12778.425781
894.954102	12947.549805
893.805664	12809.685547
892.656250	12734.991211
891.507813	12936.642578
890.358398	12766.242188
889.208984	13026.509766
888.058594	12864.861328
886.908203	12768.496094
885.758789	12737.370117
884.607422	12656.283203
883.457031	12609.989258
882.305664	12774.375977
881.154297	12649.907227
880.002930	12610.154297
878.850586	12648.548828
877.698242	12619.661133
876.545898	12621.156250
875.393555	12423.115234
874.240234	12626.308594
873.086914	12686.329102
871.933594	12592.438477
870.780273	12489.921875
869.625977	12599.756836
868.471680	12538.434570
867.317383	12448.988281
866.162109	12493.807617
865.007813	12493.151367
863.852539	12414.592773
862.696289	12565.395508
861.541016	12633.935547
860.384766	12717.582031
859.228516	12582.827148
858.072266	12688.059570
856.915039	12587.946289
855.757813	12533.248047
854.600586	12564.975586
853.442383	12629.081055
852.285156	12824.859375
851.126953	12798.214844
849.968750	12877.327148
848.809570	12915.409180
847.650391	12921.115234
846.491211	12767.227539
845.332031	12548.723633
844.171875	12726.958008
843.012695	12454.680664
841.851563	12546.666016
840.691406	12543.825195
839.530273	12590.518555
838.369141	12497.231445
837.208008	12410.443359
836.046875	12521.700195
834.884766	12385.453125
833.722656	12197.637695
832.560547	12334.671875
831.397461	12430.788086
830.234375	12197.941406
829.071289	12382.164063
827.908203	12166.622070
826.744141	12228.311523
825.580078	12264.198242
824.416016	12196.994141
823.251953	12018.181641
822.086914	12071.259766
820.921875	12055.643555
819.756836	12104.395508
818.590820	12067.327148
817.425781	12064.585938
816.259766	11939.639648
815.092773	12230.581055
813.926758	11964.215820
812.759766	12008.630859
811.592773	11877.381836
810.424805	11966.765625
809.257813	12068.955078
808.089844	11858.578125
806.920898	12059.185547
805.752930	11928.068359
804.583984	11903.963867
803.415039	11772.939453
802.246094	11956.275391
801.076172	12006.994141
799.906250	11831.153320
798.736328	11945.974609
797.566406	11985.977539
796.395508	11838.022461
795.224609	11867.353516
794.053711	11924.421875
792.881836	11908.899414
791.710938	11686.412109
790.538086	11604.818359
789.366211	11642.696289
788.194336	11746.655273
787.021484	11771.689453
785.848633	11756.217773
784.674805	11800.414063
783.500977	11934.063477
782.327148	11724.747070
781.153320	11700.778320
779.979492	11661.916992
778.804688	11797.600586
777.629883	11822.570313
776.454102	11796.469727
775.279297	11857.583984
774.103516	11752.807617
772.927734	11867.050781
771.750977	11768.694336
770.575195	11749.006836
769.398438	11788.812500
768.220703	11756.381836
767.043945	11938.442383
765.866211	11585.412109
764.688477	11574.273438
763.510742	11694.708008
762.332031	11367.431641
761.153320	11625.727539
759.974609	11813.923828
758.794922	11940.548828
757.616211	11666.502930
756.436523	11790.983398
755.255859	11701.419922
754.076172	11738.987305
752.895508	11670.652344
751.714844	11811.951172
750.533203	11529.838867
749.352539	11343.084961
748.170898	11571.105469
746.988281	11502.881836
745.806641	11605.987305
744.624023	11590.642578
743.441406	11579.532227
742.258789	11602.238281
741.075195	11525.629883
739.891602	11651.842773
738.708008	11585.815430
737.523438	11536.708984
736.339844	11487.624023
735.155273	11541.971680
733.969727	11657.481445
732.785156	11424.875977
731.599609	11531.922852
730.414063	11385.899414
729.227539	11482.363281
728.041992	11494.481445
726.855469	11496.057617
725.667969	11482.886719
724.481445	11549.750977
723.293945	11589.211914
722.106445	11531.818359
720.918945	11482.868164
719.730469	11438.148438
718.541992	11467.076172
717.353516	11275.156250
716.164063	11489.143555
714.975586	11543.263672
713.786133	11235.860352
712.595703	11283.708008
711.406250	11232.797852
710.215820	11247.017578
709.025391	11282.229492
707.833984	11508.460938
706.642578	11266.547852
705.451172	11129.662109
704.259766	11110.319336
703.068359	11453.833008
701.875977	11270.865234
700.683594	11157.162109
699.490234	11255.200195
698.297852	11246.324219
697.104492	11423.903320
695.910156	11262.092773
694.716797	11366.295898
693.522461	11443.233398
692.328125	11495.018555
691.132813	11201.504883
689.938477	11154.992188
688.743164	11323.934570
687.547852	11310.871094
686.351563	11333.353516
685.155273	11353.734375
683.958984	11292.607422
682.762695	11494.747070
681.565430	11362.598633
680.368164	11564.626953
679.170898	11257.149414
677.973633	11436.147461
676.775391	11347.953125
675.577148	11497.637695
674.378906	11542.960938
673.179688	11281.716797
671.980469	11337.491211
670.781250	11514.133789
669.581055	11571.911133
668.381836	11535.907227
667.181641	11420.767578
665.980469	11780.480469
664.780273	11854.795898
663.579102	11743.822266
662.377930	11861.811523
661.175781	11765.450195
659.973633	11852.176758
658.771484	11990.852539
657.569336	11915.316406
656.367188	11987.395508
655.164063	12188.285156
653.960938	12114.831055
652.756836	12340.523438
651.552734	12318.982422
650.348633	12318.213867
649.144531	12361.035156
647.939453	12223.287109
646.735352	12270.258789
645.529297	12418.847656
644.324219	12194.079102
643.118164	12562.389648
641.912109	12544.976563
640.706055	12459.182617
639.499023	12369.282227
638.292969	12329.137695
637.084961	12305.578125
635.877930	12364.847656
634.669922	12256.418945
633.461914	12259.793945
632.253906	12246.614258
631.044922	12047.269531
629.836914	12112.729492
628.626953	11996.209961
627.417969	11879.744141
626.208008	12108.459961
624.998047	12163.511719
623.788086	11912.815430
622.577148	11848.102539
621.366211	11744.189453
620.155273	12042.852539
618.944336	11823.369141
617.732422	11822.696289
616.520508	11690.002930
615.308594	11846.096680
614.095703	11841.292969
612.882813	11667.457031
611.669922	11844.054688
610.457031	11894.883789
609.243164	11836.511719
608.029297	11736.974609
606.815430	11571.595703
605.600586	11589.501953
604.385742	11687.662109
603.170898	11563.558594
601.955078	11702.819336
600.740234	11700.109375
599.524414	11323.180664
598.307617	11470.621094
597.091797	11264.500000
595.875000	11529.002930
594.658203	11209.979492
593.440430	11353.199219
592.222656	11342.354492
591.004883	11142.656250
589.787109	11335.045898
588.568359	11071.833008
587.349609	11331.843750
586.130859	11236.926758
584.912109	11271.229492
583.692383	11098.470703
582.472656	11313.142578
581.251953	11156.844727
580.032227	11330.431641
578.811523	11176.249023
577.589844	10987.327148
576.369141	11066.664063
575.147461	11094.796875
573.925781	11163.839844
572.703125	11022.144531
571.481445	11207.748047
570.258789	11082.464844
569.035156	11004.256836
567.812500	11218.345703
566.588867	11027.758789
565.365234	10900.587891
564.140625	11028.770508
562.916992	10877.153320
561.692383	11117.558594
560.466797	10986.400391
559.242188	11069.551758
558.016602	11066.983398
556.791016	10793.158203
555.564453	10976.208008
554.337891	10930.850586
553.111328	10926.276367
551.884766	11149.917969
550.657227	11071.956055
549.429688	10892.194336
548.202148	10958.898438
546.974609	11070.356445
545.746094	10980.270508
544.517578	10983.826172
543.288086	10977.208984
542.058594	11157.707031
540.829102	11106.316406
539.599609	11004.125977
538.370117	10922.306641
537.139648	10996.986328
535.909180	10959.898438
534.677734	11054.842773
533.446289	10956.840820
532.214844	10901.514648
530.983398	10959.872070
529.750977	11070.959961
528.519531	10946.669922
527.286133	10895.451172
526.053711	10860.478516
524.820313	11003.918945
523.586914	10977.042969
522.353516	10974.494141
521.119141	10854.447266
519.884766	11032.185547
518.650391	11104.544922
517.415039	11027.062500
516.179688	10984.023438
514.944336	10969.332031
513.708984	10857.541992
