#Wave		#Intensity
2109.007813	2512.303711
2107.496094	2525.534912
2105.984375	2538.217285
2104.470703	2582.304932
2102.958984	2571.829590
2101.445313	2539.876709
2099.933594	2605.413330
2098.419922	2538.779541
2096.906250	2602.636719
2095.390625	2570.704590
2093.876953	2682.397705
2092.361328	2657.063721
2090.845703	2544.291016
2089.332031	2553.640137
2087.814453	2624.008789
2086.298828	2547.592529
2084.783203	2553.637695
2083.265625	2569.569824
2081.748047	2562.424805
2080.230469	2598.118164
2078.712891	2490.493896
2077.195313	2550.889404
2075.677734	2601.380371
2074.158203	2554.730225
2072.638672	2562.409180
2071.119141	2606.283691
2069.599609	2558.017578
2068.080078	2519.640137
2066.560547	2575.005615
2065.039063	2485.678223
2063.517578	2582.117432
2061.996094	2566.773682
2060.474609	2539.936035
2058.953125	2547.603516
2057.429688	2566.763184
2055.908203	2549.794189
2054.384766	2560.737549
2052.861328	2466.643066
2051.337891	2539.949951
2049.814453	2503.315674
2048.289063	2540.501221
2046.765625	2587.509277
2045.240234	2601.709473
2043.714844	2610.986328
2042.189453	2559.627930
2040.664063	2593.484863
2039.136719	2606.033691
2037.609375	2571.085449
2036.083984	2586.908203
2034.556641	2553.615967
2033.029297	2572.708740
2031.500000	2511.617920
2029.972656	2515.988525
2028.443359	2468.020264
2026.914063	2536.170410
2025.386719	2506.201416
2023.855469	2505.666016
2022.326172	2514.935547
2020.796875	2537.271484
2019.265625	2490.993164
2017.734375	2590.079834
2016.203125	2501.358887
2014.671875	2605.298096
2013.140625	2493.763184
2011.607422	2463.860596
2010.076172	2513.906738
2008.542969	2544.359619
2007.009766	2511.204102
2005.476563	2543.274658
2003.943359	2518.283203
2002.408203	2617.152588
2000.875000	2616.594727
1999.339844	2500.384277
1997.804688	2561.737061
1996.269531	2533.511719
1994.732422	2531.344238
1993.197266	2556.845703
1991.660156	2535.147949
1990.123047	2523.220459
1988.585938	2540.574707
1987.048828	2569.304443
1985.511719	2479.339111
1983.972656	2444.677002
1982.435547	2484.784668
1980.896484	2505.377930
1979.357422	2477.230225
1977.818359	2549.786377
1976.279297	2529.759766
1974.738281	2457.793213
1973.197266	2523.815186
1971.658203	2513.542725
1970.117188	2490.295898
1968.576172	2548.158691
1967.033203	2481.129639
1965.492188	2504.922119
1963.949219	2441.172607
1962.406250	2507.099609
1960.863281	2556.795898
1959.320313	2429.898193
1957.777344	2455.295898
1956.232422	2527.640625
1954.689453	2491.488525
1953.144531	2499.052490
1951.599609	2488.812988
1950.054688	2517.406738
1948.507813	2499.079834
1946.962891	2514.721680
1945.416016	2509.337646
1943.869141	2481.325195
1942.322266	2446.859619
1940.775391	2447.956787
1939.228516	2549.212402
1937.679688	2458.224854
1936.132813	2460.933350
1934.583984	2437.809570
1933.035156	2471.189209
1931.486328	2477.120605
1929.935547	2436.260254
1928.386719	2472.844971
1926.835938	2538.443115
1925.285156	2492.758545
1923.734375	2437.420898
1922.183594	2451.410156
1920.632813	2468.615967
1919.080078	2503.535889
1917.527344	2430.524902
1915.976563	2401.024170
1914.423828	2416.615967
1912.869141	2408.056152
1911.316406	2430.076904
1909.761719	2440.825684
1908.208984	2441.917725
1906.654297	2397.976807
1905.099609	2485.907227
1903.544922	2488.596680
1901.988281	2518.608398
1900.433594	2440.942383
1898.876953	2532.002441
1897.320313	2459.185059
1895.763672	2463.482666
1894.207031	2416.399902
1892.648438	2449.598877
1891.091797	2477.969238
1889.533203	2471.026855
1887.974609	2481.734131
1886.416016	2391.391846
1884.857422	2506.341553
1883.298828	2428.857666
1881.738281	2502.076172
1880.177734	2482.316895
1878.617188	2396.876221
1877.056641	2484.471436
1875.496094	2511.172119
1873.935547	2472.213135
1872.373047	2457.283203
1870.810547	2431.156006
1869.248047	2387.437988
1867.685547	2391.732910
1866.123047	2396.026123
1864.560547	2406.713867
1862.996094	2463.762451
1861.431641	2453.651123
1859.867188	2453.132568
1858.302734	2438.234375
1856.738281	2400.977783
1855.171875	2464.355225
1853.607422	2510.141357
1852.041016	2375.509766
1850.474609	2445.236816
1848.908203	2500.572266
1847.341797	2455.372070
1845.773438	2408.595703
1844.207031	2398.518311
1842.638672	2425.116943
1841.070313	2474.021484
1839.501953	2471.905273
1837.931641	2444.295166
1836.363281	2445.372070
1834.792969	2435.299072
1833.222656	2412.491211
1831.652344	2448.599365
1830.082031	2417.839355
1828.511719	2423.694336
1826.941406	2431.137939
1825.369141	2449.713135
1823.796875	2496.907471
1822.224609	2486.839844
1820.652344	2438.623291
1819.078125	2415.856934
1817.505859	2469.374268
1815.931641	2476.796387
1814.357422	2485.803711
1812.783203	2450.342041
1811.208984	2492.692383
1809.634766	2462.006104
1808.058594	2436.093750
1806.484375	2359.417969
1804.908203	2431.892334
1803.332031	2455.169189
1801.753906	2540.278076
1800.177734	2430.351807
1798.601563	2453.614014
1797.023438	2432.494873
1795.445313	2439.902832
1793.867188	2456.811768
1792.289063	2464.211426
1790.708984	2451.024170
1789.130859	2455.255615
1787.550781	2454.737061
1785.970703	2436.812744
1784.390625	2475.848389
1782.810547	2502.213867
1781.228516	2432.106201
1779.646484	2360.447021
1778.066406	2487.983154
1776.484375	2473.234619
1774.902344	2442.691895
1773.318359	2424.799561
1771.736328	2430.604492
1770.152344	2442.723145
1768.568359	2457.993652
1766.984375	2468.522705
1765.400391	2428.551025
1763.816406	2522.698242
1762.230469	2541.093262
1760.646484	2370.239502
1759.060547	2483.259033
1757.474609	2548.940430
1755.888672	2540.521729
1754.300781	2519.500977
1752.714844	2496.913818
1751.126953	2502.686035
1749.539063	2544.673096
1747.951172	2572.473389
1746.363281	2532.579346
1744.775391	2543.059570
1743.185547	2591.295654
1741.595703	2452.322754
1740.007813	2535.156250
1738.416016	2514.179688
1736.826172	2538.800049
1735.236328	2513.116211
1733.644531	2562.867920
1732.052734	2598.459229
1730.462891	2588.485352
1728.869141	2531.405273
1727.277344	2515.169434
1725.685547	2541.322021
1724.091797	2575.310059
1722.498047	2544.953857
1720.904297	2644.811523
1719.310547	2608.179443
1717.716797	2653.100342
1716.121094	2586.695557
1714.527344	2667.650879
1712.931641	2595.002686
1711.335938	2644.587891
1709.740234	2559.444092
1708.142578	2626.241699
1706.546875	2664.828125
1704.949219	2661.133057
1703.351563	2643.354004
1701.753906	2650.617676
1700.156250	2653.185059
1698.558594	2724.569336
1696.958984	2753.702637
1695.359375	2676.513428
1693.759766	2699.392090
1692.160156	2691.006348
1690.560547	2713.872070
1688.960938	2710.172852
1687.359375	2683.048828
1685.757813	2684.041504
1684.156250	2752.159424
1682.554688	2803.080322
1680.953125	2777.519287
1679.349609	2823.732666
1677.748047	2740.467529
1676.144531	2766.396240
1674.541016	2796.990967
1672.937500	2877.452637
1671.332031	2853.465820
1669.728516	2913.625977
1668.123047	2941.047363
1666.517578	2854.764648
1664.912109	3008.311279
1663.306641	2931.391357
1661.701172	3084.856201
1660.093750	3119.991699
1658.486328	3120.885010
1656.878906	3112.445068
1655.271484	3187.984619
1653.664063	3162.430908
1652.056641	3220.828369
1650.447266	3175.074463
1648.837891	3272.288818
1647.228516	3243.631348
1645.619141	3373.405029
1644.009766	3333.868164
1642.398438	3412.335449
1640.789063	3526.468750
1639.177734	3443.472900
1637.566406	3644.433350
1635.955078	3524.219482
1634.341797	3667.696533
1632.730469	3804.910156
1631.117188	3790.149414
1629.503906	3806.391113
1627.890625	4008.566162
1626.277344	3944.196777
1624.662109	4009.957764
1623.048828	4052.462402
1621.433594	4101.141602
1619.818359	4090.981201
1618.203125	4091.657715
1616.587891	4019.615234
1614.970703	4072.899170
1613.353516	3983.878906
1611.738281	4108.272949
1610.121094	3934.259277
1608.501953	3987.514893
1606.884766	4076.287842
1605.267578	4050.700439
1603.648438	4190.392090
1602.029297	4376.350098
1600.410156	4346.083008
1598.791016	4417.703613
1597.169922	4456.885742
1595.550781	4358.731445
1593.929688	4368.599121
1592.308594	4447.864258
1590.687500	4482.379395
1589.064453	4597.041992
1587.443359	4654.628906
1585.820313	4761.500488
1584.197266	4879.110840
1582.574219	4827.239258
1580.951172	4869.326660
1579.328125	4959.124023
1577.703125	4988.850098
1576.080078	4910.835938
1574.455078	4717.456543
1572.830078	4873.355469
1571.203125	4793.876465
1569.578125	4880.497559
1567.951172	4894.826660
1566.324219	4770.820313
1564.697266	4837.413086
1563.070313	4873.250000
1561.443359	4855.311035
1559.816406	4768.273926
1558.187500	4873.191895
1556.558594	4641.895996
1554.929688	4608.673340
1553.300781	4658.320313
1551.669922	4572.950684
1550.041016	4576.571777
1548.410156	4414.586914
1546.779297	4369.182129
1545.148438	4437.218262
1543.517578	4312.143066
1541.884766	4274.449219
1540.251953	4146.398926
1538.621094	4171.543457
1536.988281	3976.201904
1535.353516	4001.371338
1533.720703	3916.339600
1532.085938	4024.135498
1530.453125	3899.361084
1528.818359	3976.524902
1527.183594	4010.840332
1525.546875	4087.946533
1523.912109	4114.580566
1522.275391	4151.899414
1520.640625	4183.090820
1519.003906	4093.598877
1517.365234	4243.905273
1515.728516	4249.100098
1514.091797	4158.124023
1512.453125	4149.599121
1510.814453	4173.119629
1509.175781	4236.292480
1507.537109	4250.632324
1505.896484	4034.715576
1504.257813	4126.842285
1502.617188	4069.558838
1500.976563	3997.061523
1499.335938	4070.853271
1497.693359	4069.976318
1496.052734	4130.014160
1494.410156	4069.745117
1492.767578	4199.777832
1491.125000	4297.794922
1489.482422	4360.773438
1487.837891	4565.198730
1486.195313	4711.741211
1484.550781	4762.423828
1482.906250	4805.483398
1481.261719	4804.446289
1479.617188	4652.970215
1477.970703	4617.022461
1476.324219	4559.825195
1474.677734	4536.061523
1473.031250	4371.107910
1471.384766	4362.573730
1469.738281	4222.010254
1468.089844	4252.960938
1466.441406	4200.464844
1464.792969	4225.339355
1463.144531	4198.648438
1461.496094	4240.187500
1459.845703	4187.738281
1458.197266	4095.912598
1456.546875	4117.750977
1454.896484	4030.523682
1453.244141	3914.561279
1451.593750	3863.751465
1449.941406	3979.468018
1448.291016	3856.024170
1446.638672	3773.485107
1444.984375	3736.362549
1443.332031	3720.428955
1441.679688	3780.104004
1440.025391	3705.210205
1438.371094	3801.135254
1436.716797	3759.511963
1435.062500	3696.756348
1433.406250	3661.214844
1431.750000	3607.567383
1430.095703	3532.806641
1428.439453	3476.190918
1426.781250	3538.817627
1425.125000	3429.417725
1423.466797	3351.742432
1421.810547	3347.997803
1420.152344	3362.347656
1418.494141	3358.601807
1416.833984	3256.894043
1415.175781	3334.538818
1413.515625	3333.813477
1411.855469	3372.247559
1410.195313	3270.624268
1408.535156	3300.021729
1406.875000	3367.035400
1405.212891	3307.613525
1403.550781	3383.622559
1401.888672	3291.130859
1400.226563	3337.032715
1398.564453	3364.872314
1396.900391	3377.667236
1395.238281	3336.353516
1393.574219	3258.996582
1391.910156	3310.862793
1390.244141	3214.020020
1388.580078	3250.857422
1386.914063	3203.609863
1385.248047	3243.434326
1383.582031	3136.185791
1381.916016	3228.515625
1380.250000	3335.803711
1378.582031	3246.599365
1376.916016	3259.383057
1375.248047	3308.135010
1373.578125	3253.461914
1371.910156	3344.145020
1370.242188	3283.495605
1368.572266	3233.355713
1366.902344	3189.226563
1365.232422	3255.891846
1363.562500	3217.762939
1361.890625	3154.213379
1360.220703	3283.672607
1358.548828	3297.909668
1356.876953	3214.944092
1355.205078	3208.259277
1353.531250	3243.427979
1351.859375	3266.625977
1350.185547	3268.897461
1348.511719	3357.801514
1346.837891	3292.850342
1345.164063	3405.597656
1343.488281	3482.470459
1341.812500	3504.091309
1340.138672	3733.096436
1338.460938	3715.867432
1336.785156	3803.042969
1335.109375	3894.652832
1333.431641	3877.398682
1331.753906	3879.526855
1330.076172	3981.489014
1328.398438	4007.428467
1326.720703	3942.501709
1325.041016	3972.905029
1323.361328	3958.631348
1321.681641	3936.921631
1320.001953	3885.458740
1318.322266	3860.798340
1316.640625	3833.173584
1314.960938	3818.944580
1313.279297	3772.011963
1311.597656	3722.126709
1309.914063	3801.557617
1308.232422	3677.396240
1306.548828	3542.890869
1304.865234	3545.079346
1303.181641	3462.630859
1301.498047	3497.494629
1299.814453	3446.260254
1298.128906	3392.080322
1296.443359	3437.320068
1294.757813	3375.749512
1293.072266	3360.174561
1291.386719	3485.447510
1289.699219	3374.993164
1288.011719	3323.862549
1286.324219	3312.756348
1284.636719	3230.555664
1282.949219	3272.786621
1281.259766	3260.217529
1279.572266	3383.835938
1277.882813	3349.048340
1276.193359	3385.296143
1274.501953	3319.458496
1272.812500	3329.075195
1271.121094	3230.749268
1269.429688	3139.858154
1267.738281	3131.771973
1266.046875	3024.688477
1264.353516	3049.131104
1262.662109	3064.700928
1260.968750	3090.599854
1259.275391	3020.527100
1257.582031	3075.943604
1255.886719	3038.368652
1254.193359	3006.711670
1252.498047	2970.643555
1250.802734	2924.268311
1249.107422	3013.552734
1247.410156	3057.102783
1245.714844	3137.475342
1244.017578	3188.344727
1242.320313	3118.402588
1240.623047	3178.089111
1238.925781	3212.718262
1237.226563	3100.127197
1235.527344	3058.228516
1233.828125	2966.320801
1232.128906	3000.965088
1230.429688	2985.588623
1228.728516	3059.913574
1227.029297	2996.017578
1225.328125	3008.576904
1223.626953	3000.558350
1221.923828	2920.557617
1220.222656	2919.905518
1218.519531	2850.236816
1216.816406	2989.070557
1215.113281	2932.626953
1213.410156	2890.882813
1211.707031	2909.309326
1210.001953	2923.326904
1208.296875	2931.471924
1206.591797	2987.995605
1204.886719	3050.356934
1203.179688	3087.776855
1201.474609	3235.066650
1199.767578	3410.121582
1198.060547	3466.473389
1196.353516	3603.329102
1194.644531	3579.100342
1192.937500	3565.126465
1191.228516	3554.084961
1189.519531	3461.127930
1187.810547	3523.240479
1186.099609	3640.888672
1184.390625	3901.747559
1182.679688	4158.104492
1180.968750	4371.970215
1179.257813	4467.407227
1177.544922	4434.271484
1175.833984	4243.444824
1174.121094	4064.382568
1172.408203	3971.515625
1170.695313	3907.875000
1168.982422	3867.605225
1167.267578	3755.882080
1165.552734	3701.081299
1163.837891	3599.650635
1162.123047	3578.434082
1160.408203	3431.900146
1158.691406	3403.445068
1156.976563	3446.377441
1155.259766	3260.651123
1153.541016	3338.538818
1151.824219	3324.685547
1150.107422	3217.697998
1148.388672	3139.858154
1146.669922	3143.513916
1144.951172	3059.907959
1143.230469	3047.585449
1141.511719	2961.130859
1139.791016	2886.341797
1138.070313	2833.381348
1136.349609	2712.168457
1134.628906	2669.437256
1132.906250	2673.189941
1131.185547	2656.616943
1129.462891	2624.086182
1127.740234	2559.646729
1126.015625	2503.940430
1124.292969	2485.969238
1122.568359	2476.706299
1120.843750	2503.690674
1119.119141	2562.549316
1117.394531	2540.232910
1115.667969	2478.810059
1113.941406	2442.037842
1112.214844	2497.959961
1110.488281	2468.438477
1108.761719	2495.380127
1107.033203	2499.155518
1105.306641	2523.183838
1103.578125	2432.931396
1101.849609	2462.748047
1100.119141	2462.188965
1098.390625	2457.293457
1096.660156	2436.503418
1094.929688	2459.066895
1093.199219	2402.173584
1091.468750	2413.180908
1089.736328	2392.418701
1088.003906	2370.222168
1086.273438	2363.910645
1084.539063	2357.601563
1082.806641	2332.542480
1081.074219	2277.208496
1079.339844	2285.341309
1077.605469	2341.040527
1075.871094	2298.712646
1074.134766	2303.952637
1072.400391	2446.041260
1070.664063	2395.076416
1068.927734	2431.967529
1067.191406	2448.687744
1065.455078	2415.027100
1063.716797	2410.159424
1061.978516	2415.363770
1060.240234	2318.450195
1058.501953	2269.031738
1056.763672	2305.891113
1055.023438	2213.379883
1053.283203	2362.315186
1051.542969	2301.438232
1049.802734	2286.549561
1048.062500	2273.103271
1046.320313	2319.958984
1044.578125	2335.216553
1042.835938	2351.902100
1041.093750	2282.501465
1039.351563	2322.139893
1037.607422	2357.457764
1035.863281	2411.396729
1034.119141	2383.611328
1032.375000	2332.910645
1030.628906	2342.404785
1028.884766	2287.439453
1027.138672	2275.458984
1025.392578	2310.729492
1023.646484	2294.454590
1021.898438	2242.411621
1020.152344	2266.218994
1018.404297	2231.370361
1016.656250	2343.831055
1014.906250	2231.775635
1013.158203	2302.732422
1011.408203	2275.051514
1009.658203	2284.530029
1007.908203	2375.422363
1006.158203	2299.188965
1004.406250	2352.914551
1002.656250	2365.220215
1000.904297	2394.645020
999.150391	2478.272705
997.398438	2537.612549
995.646484	2499.949951
993.892578	2420.957275
992.138672	2507.351807
990.384766	2493.948242
988.628906	2574.586670
986.875000	2575.417969
985.119141	2624.669189
983.363281	2668.201904
981.607422	2684.668457
979.849609	2639.932129
978.093750	2586.678955
976.335938	2591.772217
974.578125	2537.132324
972.820313	2513.797363
971.060547	2490.473145
969.300781	2586.538086
967.542969	2563.207275
965.781250	2559.774170
964.021484	2576.225098
962.261719	2565.690674
960.500000	2509.735840
958.738281	2534.701416
956.976563	2464.590332
955.214844	2475.368652
953.451172	2473.377930
951.687500	2404.746826
949.923828	2401.355225
948.160156	2294.506592
946.396484	2337.899414
944.630859	2287.777832
942.865234	2373.639160
941.099609	2324.947998
939.333984	2315.915771
937.568359	2244.615479
935.800781	2258.244629
934.033203	2283.184082
932.265625	2248.711670
930.498047	2258.087891
928.730469	2258.977539
926.960938	2255.626709
925.191406	2219.778809
923.421875	2284.245117
921.652344	2266.767090
919.880859	2184.345215
918.109375	2199.366211
916.337891	2221.436523
914.566406	2194.111084
912.794922	2204.886719
911.021484	2170.525635
909.248047	2220.781738
907.474609	2258.326904
905.701172	2293.035645
903.927734	2343.227539
902.152344	2393.395752
900.376953	2480.158203
898.601563	2535.902832
896.826172	2517.011963
895.050781	2468.574219
893.273438	2415.937500
891.496094	2383.019775
889.718750	2336.052734
887.939453	2221.615234
886.162109	2216.880127
884.382813	2192.470703
882.603516	2242.543213
880.824219	2223.758057
879.044922	2251.328125
877.263672	2141.281494
875.482422	2177.280273
873.701172	2140.281982
871.919922	2103.300537
870.138672	2149.102051
868.355469	2127.562988
866.572266	2131.272217
864.789063	2165.819824
863.005859	2121.867188
861.220703	2154.999268
859.435547	2137.685303
857.650391	2065.759277
855.865234	2083.478516
854.080078	2059.193359
852.292969	2078.305176
850.505859	1984.072021
848.718750	2024.175049
846.931641	2018.106934
845.144531	2035.811279
843.355469	2000.387085
841.566406	2029.267456
839.777344	2010.627930
837.988281	2001.775269
836.197266	1987.340210
834.408203	2014.799561
832.617188	1989.200439
830.824219	2019.437134
829.033203	2023.149414
827.240234	2007.330322
825.449219	2043.119507
823.656250	2094.229004
821.861328	2049.130371
820.068359	2079.309570
818.273438	1975.716187
816.478516	1972.466187
814.683594	2015.175293
812.888672	1974.324341
811.091797	1984.996460
809.296875	1999.838501
807.500000	1953.453857
805.701172	1936.302368
803.904297	1941.409912
802.105469	1915.926758
800.308594	1973.857788
798.509766	1969.224365
796.708984	2011.832031
794.910156	1934.960327
793.109375	1967.834473
791.308594	1925.718994
789.507813	1959.967651
787.707031	1941.465332
785.904297	1911.872070
784.101563	1861.486206
782.298828	1935.933350
780.496094	1902.202393
778.693359	1880.962402
776.888672	1937.336426
775.083984	1936.879639
773.279297	1976.592041
771.474609	1940.120728
769.667969	1945.201050
767.861328	1929.516479
766.054688	1905.536011
764.248047	1906.469849
762.441406	1915.702148
760.632813	1873.764404
758.824219	1874.704590
757.015625	1830.031494
755.207031	1949.822266
753.398438	1863.705811
751.587891	1932.326538
749.777344	1951.202393
747.966797	1935.555176
746.154297	1910.253296
744.343750	2032.614136
742.531250	2040.411133
740.718750	2252.334961
738.906250	2519.315918
737.091797	2662.095459
735.277344	3092.868408
733.464844	3387.019775
731.648438	3574.953613
729.833984	3532.788574
728.019531	3147.774902
726.203125	2717.513916
724.386719	2397.562500
722.568359	2256.642578
720.751953	2102.032471
718.933594	2046.520508
717.115234	1989.659790
715.296875	1894.334106
713.478516	1947.485718
711.658203	1958.016602
709.839844	1932.825439
708.019531	1977.689331
706.197266	1929.162964
704.376953	2005.579102
702.554688	1929.620483
700.734375	1997.767456
698.910156	1972.601685
697.087891	1973.505127
695.265625	2000.459106
693.441406	2016.433838
691.617188	2125.592529
689.792969	2020.957275
687.966797	2080.749268
686.140625	2014.519775
684.316406	1962.013062
682.490234	1965.653564
680.662109	1825.598145
678.835938	1979.769897
677.007813	1913.641968
675.179688	1911.819702
673.351563	1870.348999
671.521484	1901.342896
669.693359	1898.157715
667.863281	1884.044067
666.033203	1912.280273
664.201172	1865.395508
662.371094	1912.736084
660.539063	1904.091553
658.707031	1959.587769
656.875000	1897.728516
655.041016	1931.376099
653.208984	1974.553101
651.375000	1848.657959
649.541016	1886.381714
647.705078	1956.791382
645.871094	1912.730591
644.035156	1913.637207
642.199219	1944.500488
640.363281	1895.027954
638.525391	2018.431885
636.689453	1911.814697
634.851563	1927.684082
633.013672	1874.181885
631.173828	1903.649780
629.335938	1907.274414
627.496094	1794.014404
625.656250	1885.983765
623.816406	1911.344727
621.974609	1860.638306
620.132813	1875.130493
618.292969	1880.113281
616.449219	1862.021851
614.607422	1852.079956
612.763672	1874.698853
610.921875	1829.497559
609.078125	1780.249878
607.232422	1808.291504
605.388672	1826.833130
603.542969	1780.330811
601.697266	1792.097046
599.851563	1787.606567
598.005859	1857.583862
596.158203	1789.460449
594.310547	1845.870850
592.462891	1765.605835
590.615234	1815.231567
588.765625	1782.342773
586.916016	1815.716675
585.066406	1786.898071
583.216797	1760.795898
581.367188	1775.236450
579.515625	1734.291504
577.664063	1773.037964
575.812500	1745.613281
573.960938	1760.043213
572.107422	1758.273193
570.253906	1738.965820
568.400391	1761.479126
566.546875	1761.057983
564.693359	1744.459717
562.837891	1772.346313
560.982422	1738.235840
559.126953	1779.581787
557.269531	1744.138794
555.414063	1769.305298
553.556641	1762.151245
551.699219	1710.587158
549.841797	1770.727173
547.982422	1743.399414
546.123047	1713.394653
544.263672	1751.977417
542.404297	1752.902466
540.544922	1784.737427
538.683594	1768.187012
536.822266	1794.629639
534.960938	1813.001709
533.099609	1830.022217
531.236328	1876.565552
529.373047	1817.068359
527.509766	1970.926514
525.646484	1999.964722
523.783203	2348.155518
521.917969	3091.690674
520.052734	3703.510986
518.187500	3072.789551
516.320313	2339.208984
514.455078	2058.707520
512.587891	1993.937256
510.720703	1890.372803
508.853516	1919.366577
506.984375	1908.201660
505.115234	1824.799316
503.246094	1788.249512
501.376953	1706.252686
499.507813	1696.485962
497.636719	1684.050659
495.765625	1703.690674
493.894531	1619.120483
492.021484	1633.424072
490.150391	1682.437622
488.277344	1664.680298
486.404297	1640.258179
484.531250	1654.542603
482.656250	1678.157959
480.781250	1652.416138
478.906250	1744.021362
477.031250	1644.959229
475.156250	1643.232422
473.279297	1670.818848
471.402344	1682.407227
469.525391	1639.387939
467.648438	1646.983643
465.769531	1683.860229
463.890625	1644.863647
462.011719	1616.529419
460.132813	1656.046753
458.251953	1629.053101
456.371094	1580.799927
454.490234	1596.371460
452.609375	1546.820190
450.728516	1611.549194
448.845703	1623.117188
446.962891	1605.465088
445.080078	1640.925781
443.197266	1636.550537
441.312500	1608.291870
439.427734	1622.499634
437.542969	1557.120239
435.658203	1607.135742
433.771484	1574.933716
431.886719	1587.810059
430.000000      1636.456909
428.111328	1583.074829
426.224609	1578.722046
424.335938	1569.074829
422.447266	1646.802734
420.558594	1529.941895
418.669922	1570.593262
416.779297	1595.350952
414.888672	1583.065796
412.998047	1599.875122
411.107422	1611.388794
409.214844	1559.461060
407.324219	1593.440063
405.431641	1540.220459
403.537109	1533.248169
401.644531	1530.240112
399.750000	1556.273315
