#Wave		#Intensity
2109.224609	5927.819336
2107.712891	6132.911621
2106.201172	6032.368652
2104.687500	5969.894043
2103.175781	6052.900879
2101.662109	5934.262695
2100.150391	5995.763672
2098.636719	6001.076172
2097.123047	6049.324219
2095.607422	6084.342773
2094.093750	5960.874023
2092.578125	5941.433594
2091.064453	6052.354492
2089.548828	5851.437500
2088.033203	5902.954590
2086.517578	6013.812500
2085.000000	6137.811523
2083.484375	5882.656250
2081.966797	5896.220703
2080.449219	6030.050293
2078.931641	5880.503906
2077.414063	6007.692383
2075.894531	5914.196289
2074.376953	5914.569824
2072.857422	5918.234863
2071.337891	5836.336426
2069.818359	5940.366699
2068.298828	5893.037598
2066.777344	5918.081055
2065.257813	6000.654297
2063.736328	5910.607910
2062.214844	5906.051758
2060.693359	5970.501953
2059.171875	6026.711426
2057.648438	5871.046875
2056.126953	5930.537109
2054.603516	5921.057617
2053.080078	5890.246094
2051.556641	5852.884766
2050.033203	5933.654297
2048.507813	6055.393066
2046.984375	5967.186523
2045.458984	5990.500000
2043.933594	5879.397949
2042.408203	5902.719727
2040.882813	5952.246094
2039.355469	6006.665039
2037.830078	5954.611328
2036.302734	5879.656738
2034.775391	5934.056641
2033.248047	5975.339355
2031.718750	6005.150879
2030.191406	5861.541016
2028.662109	5899.541992
2027.134766	5978.407227
2025.605469	5983.668945
2024.076172	5980.756348
2022.544922	5843.841309
2021.015625	5894.875977
2019.484375	6038.997070
2017.955078	6080.169434
2016.423828	5949.881348
2014.892578	5945.346191
2013.359375	5934.285156
2011.828125	5993.393555
2010.294922	6039.425293
2008.761719	6131.106934
2007.230469	6059.679199
2005.695313	6051.866211
2004.162109	6114.145996
2002.628906	5944.988281
2001.093750	6025.186523
1999.558594	6010.871094
1998.023438	6198.509766
1996.488281	6117.404297
1994.953125	6042.845215
1993.417969	6119.682129
1991.880859	6079.325684
1990.343750	6170.763672
1988.806641	6083.243652
1987.269531	6133.987305
1985.732422	6049.764160
1984.193359	6113.496582
1982.656250	5970.808105
1981.117188	6006.908691
1979.578125	6052.740723
1978.039063	6067.694824
1976.500000	6085.889648
1974.958984	5922.253418
1973.417969	6062.202637
1971.878906	6013.854980
1970.337891	6035.290527
1968.796875	6124.842773
1967.253906	6001.914551
1965.712891	6050.901367
1964.169922	5851.853027
1962.626953	5926.781738
1961.083984	5978.993652
1959.541016	5909.685547
1957.998047	5935.964844
1956.455078	6004.334473
1954.910156	5925.350586
1953.365234	5958.083984
1951.820313	5924.454590
1950.275391	5962.027344
1948.730469	5941.352051
1947.183594	6008.015625
1945.638672	5971.169434
1944.091797	5859.978516
1942.544922	5988.032227
1940.998047	5983.530762
1939.449219	5838.480957
1937.902344	5956.766602
1936.353516	5836.006348
1934.804688	5909.036133
1933.255859	5935.224609
1931.707031	5880.710938
1930.158203	6047.265625
1928.607422	5881.445801
1927.058594	5818.914551
1925.507813	5985.375488
1923.957031	5932.520996
1922.406250	5879.687988
1920.853516	5876.831543
1919.302734	5759.589844
1917.750000	5809.914063
1916.197266	5816.735840
1914.644531	5813.894531
1913.091797	5867.394043
1911.539063	5803.387207
1909.984375	5774.805176
1908.431641	5791.278809
1906.876953	5905.854492
1905.322266	5848.324707
1903.767578	5949.978027
1902.210938	5956.755859
1900.656250	5724.089355
1899.099609	5799.997559
1897.542969	5885.511719
1895.986328	5853.753418
1894.429688	5838.064941
1892.873047	5823.987793
1891.314453	5811.521484
1889.755859	5853.617188
1888.199219	5898.903320
1886.640625	5881.617188
1885.080078	5947.724609
1883.521484	5925.625000
1881.960938	5906.740234
1880.402344	5867.029785
1878.841797	5893.027832
1877.281250	5822.900391
1875.720703	5914.560547
1874.158203	5930.923828
1872.597656	5833.617676
1871.035156	5861.194336
1869.472656	5925.564453
1867.910156	5836.319824
1866.347656	5747.112305
1864.783203	5720.311035
1863.220703	5775.062500
1861.656250	5919.307129
1860.091797	5922.851074
1858.527344	5804.957520
1856.962891	5866.034180
1855.396484	5871.183594
1853.832031	5925.832520
1852.265625	5800.054199
1850.699219	5897.790527
1849.132813	5875.799316
1847.566406	5904.872559
1845.998047	5814.297363
1844.431641	5883.240723
1842.863281	5904.320801
1841.294922	5831.337891
1839.726563	5814.168457
1838.156250	5878.272461
1836.587891	5877.030762
1835.017578	5848.712402
1833.449219	5917.545410
1831.878906	5940.177246
1830.306641	5856.150391
1828.736328	5885.151367
1827.166016	5864.814941
1825.593750	5944.706055
1824.021484	5924.365234
1822.449219	5846.789551
1820.876953	5888.478516
1819.304688	5950.812500
1817.730469	5849.442871
1816.158203	5943.533203
1814.583984	5894.625488
1813.009766	5899.732910
1811.435547	5949.295410
1809.859375	5960.738281
1808.285156	5989.634277
1806.708984	5740.837402
1805.132813	5906.197754
1803.556641	5960.463379
1801.980469	5873.574707
1800.404297	5858.065918
1798.826172	5936.082031
1797.248047	5917.396484
1795.671875	5852.770508
1794.093750	5960.834961
1792.513672	5980.164551
1790.935547	6005.819336
1789.355469	5968.140625
1787.777344	5990.621094
1786.197266	5973.531738
1784.617188	5977.016113
1783.035156	5931.465820
1781.455078	5865.375488
1779.873047	5970.067383
1778.292969	5954.580078
1776.710938	5894.847656
1775.128906	6015.266602
1773.544922	5911.313965
1771.962891	5968.502441
1770.378906	5919.870117
1768.794922	6051.231445
1767.212891	5980.503906
1765.626953	6067.611328
1764.042969	6025.308594
1762.458984	6057.160645
1760.873047	5965.988281
1759.287109	6053.023926
1757.701172	5993.418457
1756.115234	6179.702148
1754.529297	6216.213379
1752.941406	6229.077637
1751.355469	6137.982910
1749.767578	6168.180176
1748.179688	6091.305664
1746.591797	6126.221191
1745.001953	6139.089355
1743.414063	6118.910645
1741.824219	6210.427246
1740.234375	6218.550293
1738.644531	6207.801270
1737.054688	6247.361816
1735.462891	6277.475098
1733.873047	6417.572754
1732.281250	6375.367676
1730.689453	6328.468262
1729.097656	6320.848145
1727.505859	6413.714844
1725.912109	6399.799805
1724.320313	6437.680664
1722.726563	6422.196777
1721.132813	6441.231445
1719.539063	6290.870117
1717.945313	6473.003418
1716.349609	6553.155762
1714.755859	6493.774414
1713.160156	6586.424316
1711.564453	6592.863770
1709.968750	6589.901855
1708.371094	6668.376465
1706.775391	6638.781250
1705.177734	6701.557617
1703.580078	6656.315918
1701.982422	6783.215820
1700.384766	6755.184082
1698.787109	6669.291992
1697.187500	6766.395996
1695.587891	6625.817383
1693.990234	6746.334961
1692.390625	6785.537598
1690.789063	6874.720703
1689.189453	6888.884766
1687.587891	6717.191406
1685.988281	7020.249023
1684.386719	7059.349609
1682.785156	7036.001953
1681.181641	6964.290039
1679.580078	7212.432129
1677.976563	7235.859375
1676.373047	7111.127441
1674.769531	7161.070313
1673.166016	7223.461914
1671.562500	7131.538086
1669.957031	7299.861816
1668.353516	7229.769531
1666.748047	7474.315918
1665.142578	7496.086914
1663.537109	7693.767578
1661.929688	7578.511230
1660.324219	7682.720703
1658.716797	7990.697754
1657.109375	8122.772949
1655.501953	8368.318359
1653.894531	8114.658691
1652.285156	8503.114258
1650.677734	8830.791992
1649.068359	8768.316406
1647.458984	8931.125000
1645.849609	9272.479492
1644.240234	9282.931641
1642.628906	9204.884766
1641.019531	9308.476563
1639.408203	9508.239258
1637.796875	9569.830078
1636.185547	9766.348633
1634.572266	9958.129883
1632.960938	10004.078125
1631.347656	10177.124023
1629.734375	10435.338867
1628.121094	10492.000977
1626.507813	11038.191406
1624.894531	11192.280273
1623.279297	11182.155273
1621.664063	11425.943359
1620.048828	11652.599609
1618.433594	11931.776367
1616.818359	12142.753906
1615.203125	12253.092773
1613.585938	12623.208984
1611.968750	12985.434570
1610.351563	13073.876953
1608.734375	13588.865234
1607.117188	13674.048828
1605.498047	13955.402344
1603.878906	14003.398438
1602.261719	14170.283203
1600.640625	14229.019531
1599.021484	14332.494141
1597.402344	14460.616211
1595.781250	14756.865234
1594.162109	15313.691406
1592.541016	15793.163086
1590.919922	16368.032227
1589.296875	17024.361328
1587.675781	17299.705078
1586.052734	17545.650391
1584.429688	17398.621094
1582.806641	17197.744141
1581.183594	16616.570313
1579.560547	16499.085938
1577.935547	16069.163086
1576.312500	15921.061523
1574.687500	15705.320313
1573.062500	15283.531250
1571.435547	15257.193359
1569.810547	15283.146484
1568.183594	15069.258789
1566.558594	15070.646484
1564.931641	15001.343750
1563.304688	14726.194336
1561.675781	14549.469727
1560.048828	14163.959961
1558.419922	14121.007813
1556.791016	13973.688477
1555.162109	13620.776367
1553.533203	13703.786133
1551.904297	13584.260742
1550.273438	13427.975586
1548.642578	13458.833008
1547.011719	13480.478516
1545.380859	13189.429688
1543.750000	13002.709961
1542.119141	12788.491211
1540.486328	12695.373047
1538.853516	12557.882813
1537.220703	12377.579102
1535.587891	12137.650391
1533.955078	12037.095703
1532.320313	11645.858398
1530.685547	11681.603516
1529.052734	11448.144531
1527.416016	11535.905273
1525.781250	11588.465820
1524.146484	11618.074219
1522.509766	11566.676758
1520.873047	11394.601563
1519.236328	11363.129883
1517.599609	11400.394531
1515.962891	11498.715820
1514.324219	11816.812500
1512.687500	11731.856445
1511.048828	11770.531250
1509.410156	11897.669922
1507.771484	11831.050781
1506.130859	11625.695313
1504.492188	11496.654297
1502.851563	11277.739258
1501.210938	10994.914063
1499.570313	11091.578125
1497.927734	10883.550781
1496.287109	10802.014648
1494.644531	10743.351563
1493.001953	10617.733398
1491.359375	10525.650391
1489.716797	10491.427734
1488.074219	10171.218750
1486.429688	10131.001953
1484.785156	10064.950195
1483.140625	9916.831055
1481.496094	9849.332031
1479.851563	9904.952148
1478.207031	9778.231445
1476.560547	9719.917969
1474.914063	9734.523438
1473.267578	9762.787109
1471.621094	9974.714844
1469.972656	9940.687500
1468.326172	9927.917969
1466.677734	9789.241211
1465.029297	9811.391602
1463.380859	9875.989258
1461.732422	9940.557617
1460.082031	9945.985352
1458.431641	10071.124023
1456.783203	10100.759766
1455.132813	10112.206055
1453.480469	10147.875977
1451.830078	10172.931641
1450.177734	10284.257813
1448.527344	10336.511719
1446.875000	10426.569336
1445.220703	10605.838867
1443.568359	10620.175781
1441.916016	10769.082031
1440.261719	10523.353516
1438.607422	10348.767578
1436.953125	10464.388672
1435.298828	10172.049805
1433.642578	10127.548828
1431.988281	10181.225586
1430.332031	10055.211914
1428.675781	9871.892578
1427.019531	9901.439453
1425.361328	9656.371094
1423.705078	9762.882813
1422.046875	9827.120117
1420.388672	9634.998047
1418.730469	9578.632813
1417.072266	9543.391602
1415.412109	9425.289063
1413.753906	9355.445313
1412.093750	9377.508789
1410.433594	9408.596680
1408.773438	9299.655273
1407.111328	9577.597656
1405.451172	9453.617188
1403.789063	9517.757813
1402.126953	9578.861328
1400.464844	9713.627930
1398.802734	9630.318359
1397.138672	9909.323242
1395.474609	9816.988281
1393.812500	9911.011719
1392.146484	10081.608398
1390.482422	10243.118164
1388.818359	10442.096680
1387.152344	10651.496094
1385.486328	10871.309570
1383.820313	10996.487305
1382.154297	11448.670898
1380.488281	11423.670898
1378.820313	11481.159180
1377.154297	11579.102539
1375.486328	11888.357422
1373.818359	12035.622070
1372.148438	12133.376953
1370.480469	12442.304688
1368.810547	12695.682617
1367.140625	13416.116211
1365.470703	13982.041992
1363.800781	14549.214844
1362.130859	14833.328125
1360.458984	14671.500000
1358.787109	14420.000000
1357.115234	13539.058594
1355.443359	13117.480469
1353.771484	12769.325195
1352.097656	12762.041992
1350.423828	12515.711914
1348.751953	12187.333008
1347.076172	12112.974609
1345.402344	12428.340820
1343.728516	12418.148438
1342.052734	12436.315430
1340.376953	12529.078125
1338.701172	12524.833008
1337.025391	12419.171875
1335.347656	12288.208008
1333.671875	12222.893555
1331.994141	12011.542969
1330.316406	11691.504883
1328.638672	11609.973633
1326.960938	11562.735352
1325.281250	11445.526367
1323.601563	11243.505859
1321.921875	11211.260742
1320.242188	11034.677734
1318.562500	11170.614258
1316.880859	11004.528320
1315.201172	10786.462891
1313.519531	10778.137695
1311.837891	10711.841797
1310.154297	10664.893555
1308.472656	10539.214844
1306.789063	10664.644531
1305.105469	10246.433594
1303.421875	10061.532227
1301.738281	10022.197266
1300.054688	9896.792969
1298.369141	9680.926758
1296.683594	9601.641602
1294.998047	9506.076172
1293.312500	9452.073242
1291.626953	9374.371094
1289.939453	9308.561523
1288.253906	9159.791992
1286.566406	9197.768555
1284.878906	9164.625977
1283.189453	9036.717773
1281.501953	9237.561523
1279.812500	9180.745117
1278.123047	9184.630859
1276.433594	9286.170898
1274.744141	9400.977539
1273.052734	9623.698242
1271.363281	9614.171875
1269.671875	9677.085938
1267.980469	9419.246094
1266.289063	9544.235352
1264.595703	9573.141602
1262.904297	9192.902344
1261.210938	9072.727539
1259.517578	8741.486328
1257.824219	8532.900391
1256.128906	8523.625977
1254.435547	8496.651367
1252.740234	8364.958984
1251.044922	8181.709473
1249.349609	8225.595703
1247.652344	8150.063477
1245.957031	8260.253906
1244.259766	8240.734375
1242.562500	8124.000488
1240.865234	8350.467773
1239.167969	8395.724609
1237.468750	8312.889648
1235.769531	8315.453125
1234.072266	8215.013672
1232.371094	8295.564453
1230.671875	8239.296875
1228.972656	8221.284180
1227.271484	8210.629883
1225.570313	8277.877930
1223.869141	8157.003906
1222.167969	8086.133789
1220.464844	8063.765137
1218.763672	7967.981445
1217.060547	7957.392578
1215.357422	7863.141602
1213.654297	7824.696777
1211.949219	7755.458008
1210.246094	7734.655273
1208.541016	7710.927734
1206.835938	7675.480469
1205.130859	7606.333496
1203.423828	7795.150391
1201.718750	7689.375977
1200.011719	7626.129395
1198.304688	7574.626953
1196.597656	7537.789063
1194.888672	7500.966797
1193.181641	7390.982422
1191.472656	7487.361816
1189.763672	7409.612305
1188.054688	7510.330566
1186.343750	7523.268555
1184.634766	7498.189453
1182.923828	7505.276367
1181.212891	7339.929688
1179.501953	7287.148926
1177.791016	7289.894043
1176.078125	7370.032227
1174.365234	7260.339844
1172.652344	7267.465820
1170.939453	7236.645996
1169.226563	7277.328613
1167.511719	7156.083496
1165.798828	7153.015137
1164.083984	7119.330078
1162.369141	6992.369629
1160.652344	6979.136719
1158.937500	6983.393066
1157.220703	6769.146484
1155.503906	6688.979004
1153.787109	6822.880859
1152.070313	6748.558594
1150.351563	6684.457031
1148.632813	6656.759277
1146.916016	6719.264648
1145.195313	6579.583008
1143.476563	6576.644531
1141.757813	6627.493652
1140.037109	6560.594727
1138.316406	6438.509277
1136.595703	6508.239258
1134.875000	6307.789551
1133.152344	6380.419922
1131.429688	6339.780273
1129.708984	6307.867188
1127.984375	6210.668945
1126.261719	6278.900391
1124.539063	6186.102539
1122.814453	6091.895996
1121.089844	6076.019043
1119.365234	5990.575684
1117.640625	6050.082031
1115.914063	6013.940430
1114.187500	5957.536133
1112.462891	5948.945313
1110.734375	5950.492676
1109.007813	5769.655762
1107.281250	5875.437012
1105.552734	5807.550293
1103.824219	5819.250977
1102.095703	5725.375488
1100.367188	5699.496582
1098.636719	5868.772949
1096.908203	5767.722656
1095.177734	5699.949219
1093.447266	5721.766602
1091.714844	5693.026367
1089.984375	5750.931152
1088.251953	5765.502441
1086.519531	5720.895020
1084.787109	5633.020508
1083.054688	5737.045410
1081.320313	5741.508789
1079.585938	5717.131348
1077.851563	5927.740723
1076.117188	5821.180176
1074.382813	5955.300293
1072.648438	6132.576172
1070.912109	6195.990234
1069.175781	6154.259766
1067.439453	5995.939941
1065.701172	5980.180176
1063.964844	5820.531738
1062.226563	5639.376953
1060.488281	5787.671875
1058.750000	5679.941895
1057.011719	5570.822754
1055.271484	5616.981445
1053.531250	5474.875000
1051.791016	5487.990723
1050.050781	5429.283691
1048.310547	5472.558594
1046.568359	5421.059082
1044.826172	5464.314941
1043.083984	5480.285156
1041.341797	5580.893066
1039.599609	5629.818359
1037.855469	5502.335938
1036.113281	5696.058594
1034.369141	5525.617188
1032.623047	5577.374023
1030.878906	5593.288574
1029.132813	5530.414551
1027.386719	5507.666504
1025.640625	5441.976074
1023.894531	5563.828125
1022.148438	5551.103516
1020.400391	5577.014160
1018.652344	5542.834961
1016.904297	5491.510254
1015.156250	5411.613281
1013.406250	5539.019043
1011.658203	5530.601074
1009.908203	5500.755371
1008.158203	5540.916504
1006.408203	5511.080566
1004.656250	5415.580078
1002.904297	5521.394043
1001.152344	5577.209473
999.400391	5538.830078
997.648438	5486.202637
995.896484	5442.156250
994.142578	5389.574219
992.388672	5409.715820
990.634766	5496.829590
988.878906	5496.988281
987.125000	5443.015625
985.369141	5315.010254
983.613281	5480.375000
981.857422	5419.323730
980.099609	5383.917969
978.343750	5395.481934
976.585938	5453.983398
974.828125	5408.636719
973.070313	5351.935547
971.310547	5417.512695
969.552734	5352.307129
967.792969	5532.945313
966.033203	5314.321289
964.273438	5367.062500
962.511719	5507.812988
960.750000	5540.609863
958.990234	5553.521484
957.226563	5508.250977
955.464844	5522.581543
953.703125	5396.496582
951.939453	5454.801270
950.175781	5344.383301
948.412109	5296.375977
946.648438	5220.051270
944.882813	5235.841797
943.117188	5153.900391
941.351563	5098.899902
939.585938	5151.512695
937.820313	5120.597168
936.052734	5181.669434
934.285156	5080.027344
932.517578	5080.263672
930.750000	5015.455078
928.982422	5110.421387
927.212891	5039.981445
925.443359	5061.419922
923.673828	5065.895996
921.904297	4996.926270
920.132813	5121.436523
918.361328	5097.659668
916.591797	5040.020508
914.818359	5102.346191
913.046875	5044.731445
911.275391	5009.709473
909.501953	5039.565918
907.728516	5075.046875
905.955078	5049.906738
904.179688	5021.958984
902.406250	5017.973145
900.630859	5153.421875
898.855469	5076.185059
897.080078	5073.595215
895.302734	5040.042480
893.525391	5127.516602
891.750000	5117.881348
889.970703	5143.411133
888.193359	5142.212402
886.416016	5122.738281
884.636719	5110.299805
882.857422	5079.600098
881.078125	5053.128418
879.296875	5046.331543
877.517578	4938.437500
875.736328	4930.265625
873.955078	4974.026855
872.173828	4870.433594
870.390625	4877.713379
868.609375	4812.058105
866.826172	4808.129395
865.042969	4854.669434
863.259766	4779.252930
861.474609	4867.813477
859.689453	4824.648926
857.904297	4861.335449
856.119141	4861.598633
854.333984	4888.459473
852.546875	4936.300781
850.761719	4895.966797
848.974609	4980.154785
847.185547	4874.094238
845.398438	5022.567383
843.609375	4916.545898
841.822266	4905.610840
840.031250	4880.708008
838.242188	4907.503418
836.453125	4878.420410
834.662109	5056.003418
832.871094	4980.831543
831.080078	4876.385742
829.289063	4946.403320
827.496094	4833.643555
825.703125	4909.215820
823.910156	4926.190430
822.117188	4966.854492
820.324219	4872.311523
818.529297	4889.281250
816.734375	4810.123535
814.939453	5019.291504
813.144531	4887.229492
811.347656	4862.416504
809.550781	4928.076172
807.755859	4869.870605
805.957031	4884.027832
804.160156	4887.051758
802.361328	4976.278809
800.564453	4941.746582
798.765625	4972.548340
796.964844	4861.613770
795.166016	4797.959961
793.365234	4789.886719
791.564453	4759.601563
789.763672	4819.558594
787.962891	4851.730469
786.160156	4865.850098
784.359375	4882.736816
782.556641	4834.434570
780.751953	4926.190430
778.949219	4744.828125
777.144531	4930.797363
775.339844	4835.420410
773.535156	4940.939453
771.730469	4968.855957
769.925781	4841.691895
768.119141	4823.939453
766.312500	4871.236816
764.505859	4901.909180
762.697266	4866.171387
760.890625	4887.149414
759.082031	4811.336914
757.273438	4883.459473
755.464844	4847.758301
753.654297	4787.205078
751.845703	4805.411621
750.035156	4873.323242
748.224609	4854.223633
746.412109	4960.738281
744.601563	5072.722168
742.789063	5237.078613
740.976563	5433.080566
739.164063	5893.753906
737.349609	6464.500488
735.537109	7233.455566
733.722656	7942.791992
731.908203	8362.480469
730.091797	8233.785156
728.277344	7478.605957
726.460938	6588.866211
724.644531	5833.055664
722.828125	5436.750000
721.009766	5190.584473
719.193359	4956.913574
717.375000	4937.863281
715.556641	4800.594238
713.736328	4908.035156
711.917969	4813.434082
710.097656	4823.283203
708.277344	4658.700684
706.457031	4642.491699
704.636719	4668.846680
702.814453	4663.622070
700.992188	4633.701172
699.169922	4610.652832
697.347656	4694.590820
695.523438	4664.682617
693.699219	4621.079590
691.875000	4872.156250
690.050781	4813.452148
688.226563	4890.391113
686.400391	4796.102051
684.574219	4760.732910
682.748047	4836.259277
680.921875	4747.522949
679.095703	4747.763184
677.267578	4634.466797
675.439453	4752.345215
673.611328	4710.198242
671.781250	4730.949707
669.953125	4720.258789
668.123047	4776.520508
666.292969	4623.763672
664.460938	4775.614746
662.630859	4782.670898
660.798828	4815.657715
658.966797	4749.008789
657.134766	4832.467285
655.302734	4741.292969
653.468750	4880.624023
651.634766	4818.111328
649.800781	4838.773438
647.966797	4770.848633
646.130859	4805.134766
644.294922	4823.059570
642.458984	4786.505859
640.623047	4838.460938
638.787109	4883.585449
636.949219	4815.745117
635.111328	4863.573730
633.273438	4881.456543
631.435547	4785.107910
629.595703	4820.673340
627.757813	4842.629883
625.917969	4811.581543
624.076172	4761.528809
622.236328	4814.720215
620.394531	4789.130859
618.552734	4672.599609
616.710938	4670.127930
614.869141	4716.504883
613.025391	4614.995117
611.183594	4645.087402
609.339844	4587.031250
607.494141	4721.495117
605.650391	4609.237305
603.804688	4633.881348
601.958984	4672.059082
600.113281	4624.897949
598.267578	4669.829102
596.419922	4619.982910
594.572266	4585.047363
592.724609	4625.895508
590.876953	4643.728027
589.027344	4527.669434
587.179688	4564.444824
585.330078	4539.023926
583.480469	4320.367676
581.628906	4434.175293
579.779297	4468.235352
577.927734	4449.612305
576.076172	4507.953125
574.222656	4566.265625
572.371094	4459.917969
570.517578	4475.041504
568.664063	4479.367188
566.810547	4479.645020
564.955078	4514.974121
563.101563	4500.416504
561.246094	4431.965332
559.390625	4474.015625
557.533203	4332.871582
555.677734	4450.331543
553.820313	4438.497559
551.962891	4388.983398
550.105469	4401.389648
548.246094	4341.145508
546.386719	4315.897949
544.527344	4333.690430
542.667969	4254.684570
540.808594	4402.847168
538.947266	4385.669922
537.085938	4388.650879
535.224609	4341.938477
533.363281	4315.388184
531.500000	4381.473633
529.638672	4338.821777
527.775391	4328.391113
525.910156	4445.398438
524.046875	4677.682129
522.181641	4943.373047
520.316406	5506.513184
518.451172	5202.328613
516.585938	4674.543945
514.718750	4493.935059
512.851563	4478.128418
510.984375	4364.594238
509.117188	4276.545898
507.250000	4317.005859
505.380859	4243.726563
503.511719	4292.199707
501.642578	4351.347168
499.771484	4359.663574
497.902344	4373.321777
496.031250	4290.761719
494.160156	4408.633301
492.287109	4323.432617
490.416016	4395.838867
488.542969	4356.071289
486.669922	4258.931641
484.796875	4253.908203
482.921875	4262.227051
481.046875	4282.545410
479.171875	4253.518066
477.296875	4159.183594
475.421875	4204.833496
473.544922	4199.828613
471.667969	4213.475586
469.791016	4145.875977
467.914063	4134.230957
466.035156	4045.383789
464.156250	4043.083496
462.277344	4131.259277
460.398438	3965.324707
458.519531	4030.868408
456.638672	4048.516113
454.757813	3966.462158
452.876953	4074.483398
450.994141	4003.090576
449.113281	3917.120850
447.230469	4027.731445
445.347656	3963.038818
443.462891	3971.380371
441.580078	4100.476074
439.695313	4010.604492
437.810547	3989.747559
435.925781	4033.877441
434.039063	3924.199707
432.152344	4023.991455
430.267578	3954.121338
428.378906	3900.182129
426.492188	3942.954834
424.603516	3906.257568
422.714844	3941.064941
420.826172	3884.532715
418.937500	3924.620850
417.046875	3898.545410
415.158203	3934.643066
413.265625	3912.543945
411.375000	3833.612061
409.484375	3923.885010
407.591797	3907.089111
405.699219	3989.374756
403.806641	3915.781982
401.912109	3823.739258
400.019531	3908.625244
