#Wave		#Intensity
2109.224609	11246.978516
2107.712891	11131.201172
2106.201172	11042.805664
2104.687500	10994.127930
2103.175781	11071.089844
2101.662109	11083.570313
2100.150391	11018.392578
2098.636719	11205.972656
2097.123047	10949.227539
2095.607422	10996.397461
2094.093750	11172.305664
2092.578125	11113.781250
2091.064453	10985.980469
2089.548828	10835.139648
2088.033203	11043.917969
2086.517578	11097.602539
2085.000000	10917.160156
2083.484375	10957.663086
2081.966797	10942.119141
2080.449219	10880.451172
2078.931641	10803.985352
2077.414063	10729.198242
2075.894531	10777.930664
2074.376953	10813.473633
2072.857422	10881.916016
2071.337891	10770.977539
2069.818359	10641.991211
2068.298828	10809.110352
2066.777344	10734.435547
2065.257813	10714.044922
2063.736328	10769.271484
2062.214844	10852.411133
2060.693359	10792.578125
2059.171875	10581.650391
2057.648438	10825.717773
2056.126953	10962.956055
2054.603516	10556.784180
2053.080078	10726.845703
2051.556641	10909.960938
2050.033203	10842.001953
2048.507813	10670.744141
2046.984375	10743.887695
2045.458984	10721.913086
2043.933594	10685.195313
2042.408203	10614.080078
2040.882813	10652.767578
2039.355469	10784.805664
2037.830078	10658.033203
2036.302734	10647.566406
2034.775391	10676.390625
2033.248047	10752.665039
2031.718750	10781.455078
2030.191406	10748.067383
2028.662109	10821.005859
2027.134766	10763.094727
2025.605469	10680.685547
2024.076172	10665.327148
2022.544922	10600.950195
2021.015625	10899.311523
2019.484375	10769.572266
2017.955078	10657.852539
2016.423828	10680.069336
2014.892578	10596.167969
2013.359375	10869.730469
2011.828125	10777.665039
2010.294922	10843.884766
2008.761719	10826.892578
2007.230469	10955.039063
2005.695313	11076.610352
2004.162109	10878.648438
2002.628906	10858.403320
2001.093750	10979.916992
1999.558594	10936.853516
1998.023438	10911.722656
1996.488281	11034.775391
1994.953125	10838.702148
1993.417969	11061.000000
1991.880859	11123.733398
1990.343750	11072.559570
1988.806641	11133.637695
1987.269531	11134.520508
1985.732422	11094.756836
1984.193359	11040.379883
1982.656250	10984.401367
1981.117188	10973.941406
1979.578125	10971.607422
1978.039063	10985.515625
1976.500000	11134.190430
1974.958984	10883.439453
1973.417969	10955.788086
1971.878906	10956.705078
1970.337891	10782.404297
1968.796875	10908.254883
1967.253906	10881.611328
1965.712891	10900.377930
1964.169922	10974.250977
1962.626953	10808.232422
1961.083984	10895.055664
1959.541016	10821.462891
1957.998047	10731.706055
1956.455078	10667.894531
1954.910156	10686.676758
1953.365234	10741.060547
1951.820313	10649.777344
1950.275391	10704.144531
1948.730469	10800.545898
1947.183594	10848.389648
1945.638672	10627.808594
1944.091797	10632.021484
1942.544922	10713.809570
1940.998047	10729.312500
1939.449219	10676.957031
1937.902344	10687.615234
1936.353516	10501.258789
1934.804688	10657.252930
1933.255859	10743.773438
1931.707031	10639.827148
1930.158203	10435.889648
1928.607422	10503.042969
1927.058594	10489.528320
1925.507813	10727.560547
1923.957031	10494.757813
1922.406250	10453.853516
1920.853516	10429.080078
1919.302734	10454.259766
1917.750000	10387.617188
1916.197266	10272.690430
1914.644531	10404.150391
1913.091797	10530.725586
1911.539063	10386.872070
1909.984375	10368.583008
1908.431641	10273.084961
1906.876953	10354.545898
1905.322266	10384.514648
1903.767578	10305.149414
1902.210938	10256.357422
1900.656250	10545.051758
1899.099609	10288.970703
1897.542969	10277.157227
1895.986328	10384.189453
1894.429688	10399.655273
1892.873047	10291.506836
1891.314453	10428.960938
1889.755859	10346.525391
1888.199219	10318.668945
1886.640625	10358.190430
1885.080078	10421.747070
1883.521484	10424.354492
1881.960938	10423.752930
1880.402344	10440.781250
1878.841797	10287.963867
1877.281250	10554.908203
1875.720703	10291.623047
1874.158203	10451.171875
1872.597656	10300.081055
1871.035156	10353.923828
1869.472656	10401.341797
1867.910156	10389.544922
1866.347656	10401.745117
1864.783203	10295.600586
1863.220703	10211.883789
1861.656250	10225.710938
1860.091797	10183.596680
1858.527344	10199.021484
1856.962891	10308.692383
1855.396484	10194.712891
1853.832031	10202.140625
1852.265625	10428.283203
1850.699219	10315.946289
1849.132813	10286.638672
1847.566406	10372.216797
1845.998047	10216.892578
1844.431641	10369.431641
1842.863281	10292.300781
1841.294922	10345.921875
1839.726563	10256.078125
1838.156250	10257.099609
1836.587891	10208.732422
1835.017578	10195.426758
1833.449219	10384.368164
1831.878906	10254.806641
1830.306641	10338.596680
1828.736328	10221.830078
1827.166016	10518.798828
1825.593750	10432.266602
1824.021484	10342.589844
1822.449219	10369.028320
1820.876953	10357.299805
1819.304688	10218.421875
1817.730469	10241.689453
1816.158203	10542.979492
1814.583984	10464.508789
1813.009766	10452.770508
1811.435547	10460.089844
1809.859375	10280.090820
1808.285156	10500.111328
1806.708984	10423.316406
1805.132813	10381.455078
1803.556641	10426.845703
1801.980469	10581.631836
1800.404297	10365.367188
1798.826172	10268.074219
1797.248047	10617.716797
1795.671875	10669.344727
1794.093750	10489.675781
1792.513672	10574.565430
1790.935547	10604.000000
1789.355469	10509.943359
1787.777344	10700.816406
1786.197266	10640.007813
1784.617188	10675.729492
1783.035156	10689.291992
1781.455078	10468.801758
1779.873047	10646.831055
1778.292969	10737.844727
1776.710938	10697.647461
1775.128906	10617.964844
1773.544922	10882.694336
1771.962891	10712.980469
1770.378906	10743.876953
1768.794922	10698.981445
1767.212891	10671.466797
1765.626953	10751.270508
1764.042969	10750.577148
1762.458984	10783.007813
1760.873047	10714.493164
1759.287109	10918.778320
1757.701172	10820.311523
1756.115234	10808.568359
1754.529297	11014.279297
1752.941406	11092.295898
1751.355469	10941.896484
1749.767578	10767.938477
1748.179688	11023.861328
1746.591797	10939.680664
1745.001953	10842.944336
1743.414063	10946.069336
1741.824219	10912.292969
1740.234375	11194.649414
1738.644531	11077.497070
1737.054688	11249.653320
1735.462891	11222.125977
1733.873047	11111.326172
1732.281250	11130.971680
1730.689453	10996.675781
1729.097656	11134.114258
1727.505859	11194.561523
1725.912109	11152.950195
1724.320313	11309.099609
1722.726563	11327.104492
1721.132813	11376.476563
1719.539063	11424.257813
1717.945313	11437.520508
1716.349609	11585.602539
1714.755859	11532.993164
1713.160156	11563.460938
1711.564453	11703.586914
1709.968750	11787.261719
1708.371094	11919.449219
1706.775391	11970.161133
1705.177734	12056.854492
1703.580078	12101.253906
1701.982422	12164.411133
1700.384766	12139.932617
1698.787109	12081.053711
1697.187500	12416.266602
1695.587891	12510.568359
1693.990234	12359.423828
1692.390625	12528.708984
1690.789063	12624.487305
1689.189453	12782.708984
1687.587891	12690.978516
1685.988281	13042.735352
1684.386719	13047.776367
1682.785156	13252.593750
1681.181641	13440.159180
1679.580078	13632.323242
1677.976563	13713.661133
1676.373047	14042.916992
1674.769531	14161.550781
1673.166016	14256.750000
1671.562500	14270.869141
1669.957031	14534.282227
1668.353516	14719.692383
1666.748047	15095.034180
1665.142578	15414.159180
1663.537109	15627.284180
1661.929688	16117.372070
1660.324219	16555.896484
1658.716797	16844.876953
1657.109375	17359.277344
1655.501953	17823.695313
1653.894531	18322.119141
1652.285156	18528.083984
1650.677734	19100.746094
1649.068359	19342.193359
1647.458984	19449.935547
1645.849609	19896.224609
1644.240234	20036.410156
1642.628906	20251.056641
1641.019531	20484.236328
1639.408203	20960.958984
1637.796875	20944.087891
1636.185547	21268.488281
1634.572266	21611.359375
1632.960938	21366.429688
1631.347656	21749.435547
1629.734375	21557.273438
1628.121094	21825.406250
1626.507813	21754.146484
1624.894531	21754.162109
1623.279297	21755.726563
1621.664063	21746.449219
1620.048828	22218.572266
1618.433594	22337.646484
1616.818359	22752.191406
1615.203125	22987.117188
1613.585938	23300.816406
1611.968750	23755.089844
1610.351563	24077.763672
1608.734375	24624.408203
1607.117188	25274.351563
1605.498047	25545.507813
1603.878906	26179.529297
1602.261719	26249.615234
1600.640625	26512.664063
1599.021484	26905.263672
1597.402344	27100.152344
1595.781250	27311.927734
1594.162109	27485.044922
1592.541016	27695.101563
1590.919922	28122.484375
1589.296875	28293.769531
1587.675781	28216.828125
1586.052734	28351.033203
1584.429688	28512.910156
1582.806641	28822.585938
1581.183594	28739.429688
1579.560547	29301.427734
1577.935547	29676.921875
1576.312500	30376.984375
1574.687500	30338.179688
1573.062500	30810.121094
1571.435547	31474.113281
1569.810547	32156.269531
1568.183594	32257.007813
1566.558594	32408.421875
1564.931641	32207.863281
1563.304688	31878.332031
1561.675781	31685.648438
1560.048828	31164.398438
1558.419922	30712.462891
1556.791016	30532.425781
1555.162109	29936.548828
1553.533203	29442.195313
1551.904297	28879.017578
1550.273438	28400.435547
1548.642578	28138.269531
1547.011719	28017.257813
1545.380859	27865.638672
1543.750000	27347.832031
1542.119141	27326.646484
1540.486328	27345.294922
1538.853516	27062.238281
1537.220703	26794.611328
1535.587891	26749.060547
1533.955078	26734.138672
1532.320313	26359.636719
1530.685547	25890.447266
1529.052734	26004.187500
1527.416016	25890.035156
1525.781250	25960.914063
1524.146484	26042.462891
1522.509766	25859.599609
1520.873047	26164.193359
1519.236328	26268.550781
1517.599609	26702.732422
1515.962891	26799.291016
1514.324219	26544.703125
1512.687500	26140.658203
1511.048828	26276.941406
1509.410156	25595.474609
1507.771484	25414.566406
1506.130859	25105.646484
1504.492188	24659.646484
1502.851563	24445.517578
1501.210938	24476.826172
1499.570313	24441.083984
1497.927734	24414.494141
1496.287109	24042.210938
1494.644531	23968.513672
1493.001953	23981.615234
1491.359375	23614.226563
1489.716797	23177.000000
1488.074219	22965.109375
1486.429688	22512.998047
1484.785156	22517.265625
1483.140625	22372.541016
1481.496094	22182.277344
1479.851563	22289.941406
1478.207031	22016.212891
1476.560547	21697.031250
1474.914063	21599.707031
1473.267578	21355.148438
1471.621094	21247.310547
1469.972656	20879.998047
1468.326172	20717.681641
1466.677734	20737.474609
1465.029297	20746.640625
1463.380859	20736.089844
1461.732422	21099.998047
1460.082031	21165.154297
1458.431641	21431.824219
1456.783203	21489.302734
1455.132813	21396.796875
1453.480469	21320.988281
1451.830078	20895.464844
1450.177734	20903.048828
1448.527344	20732.046875
1446.875000	20279.685547
1445.220703	20337.312500
1443.568359	20213.421875
1441.916016	20142.507813
1440.261719	20050.458984
1438.607422	20014.369141
1436.953125	20198.914063
1435.298828	20185.466797
1433.642578	19880.507813
1431.988281	19793.134766
1430.332031	20185.912109
1428.675781	20029.074219
1427.019531	19547.835938
1425.361328	19474.183594
1423.705078	19305.527344
1422.046875	19231.957031
1420.388672	19346.894531
1418.730469	19125.607422
1417.072266	19116.927734
1415.412109	18826.468750
1413.753906	18956.453125
1412.093750	18761.042969
1410.433594	18571.738281
1408.773438	18736.314453
1407.111328	18786.421875
1405.451172	18872.623047
1403.789063	19027.994141
1402.126953	19369.818359
1400.464844	19463.349609
1398.802734	19684.640625
1397.138672	19833.679688
1395.474609	19784.267578
1393.812500	19698.812500
1392.146484	19694.515625
1390.482422	19451.412109
1388.818359	19372.085938
1387.152344	19099.130859
1385.486328	19236.048828
1383.820313	19459.941406
1382.154297	19904.275391
1380.488281	20148.917969
1378.820313	20580.908203
1377.154297	20873.271484
1375.486328	20864.210938
1373.818359	20997.523438
1372.148438	20967.458984
1370.480469	20853.519531
1368.810547	20613.822266
1367.140625	20848.884766
1365.470703	20712.583984
1363.800781	20372.792969
1362.130859	20663.111328
1360.458984	20613.705078
1358.787109	20619.658203
1357.115234	20652.523438
1355.443359	20787.035156
1353.771484	21033.587891
1352.097656	21161.976563
1350.423828	21417.300781
1348.751953	21990.673828
1347.076172	22069.478516
1345.402344	22537.939453
1343.728516	22949.466797
1342.052734	23347.380859
1340.376953	24162.902344
1338.701172	24605.121094
1337.025391	24824.921875
1335.347656	25606.769531
1333.671875	26087.134766
1331.994141	26354.150391
1330.316406	26556.970703
1328.638672	27041.271484
1326.960938	26750.833984
1325.281250	26566.250000
1323.601563	25844.283203
1321.921875	25438.189453
1320.242188	24881.970703
1318.562500	24553.630859
1316.880859	23764.306641
1315.201172	23399.173828
1313.519531	23156.121094
1311.837891	22440.460938
1310.154297	22288.378906
1308.472656	21807.986328
1306.789063	21675.419922
1305.105469	21520.630859
1303.421875	20714.044922
1301.738281	20918.792969
1300.054688	20387.275391
1298.369141	20091.929688
1296.683594	19768.523438
1294.998047	19037.367188
1293.312500	18763.269531
1291.626953	18336.585938
1289.939453	17990.128906
1288.253906	17663.089844
1286.566406	17371.751953
1284.878906	17150.160156
1283.189453	16906.451172
1281.501953	16514.787109
1279.812500	16475.603516
1278.123047	16446.794922
1276.433594	16574.837891
1274.744141	16642.171875
1273.052734	16907.656250
1271.363281	16460.312500
1269.671875	16493.621094
1267.980469	16402.761719
1266.289063	16248.400391
1264.595703	16258.090820
1262.904297	16273.682617
1261.210938	16200.666016
1259.517578	16163.112305
1257.824219	16403.066406
1256.128906	16477.634766
1254.435547	16211.356445
1252.740234	16203.328125
1251.044922	15693.898438
1249.349609	15652.075195
1247.652344	15257.967773
1245.957031	15124.884766
1244.259766	15249.705078
1242.562500	15090.165039
1240.865234	15282.680664
1239.167969	14974.487305
1237.468750	14931.405273
1235.769531	15066.423828
1234.072266	14898.265625
1232.371094	14992.038086
1230.671875	14832.792969
1228.972656	14678.028320
1227.271484	14426.303711
1225.570313	14364.293945
1223.869141	14181.813477
1222.167969	14111.067383
1220.464844	13977.192383
1218.763672	13872.746094
1217.060547	14085.465820
1215.357422	13985.442383
1213.654297	14057.159180
1211.949219	13989.460938
1210.246094	14028.872070
1208.541016	14009.602539
1206.835938	14035.792969
1205.130859	14067.833008
1203.423828	14161.409180
1201.718750	14332.598633
1200.011719	14324.994141
1198.304688	14526.822266
1196.597656	14727.094727
1194.888672	14712.083984
1193.181641	14543.404297
1191.472656	14670.372070
1189.763672	14753.393555
1188.054688	14889.029297
1186.343750	14963.188477
1184.634766	14867.730469
1182.923828	14868.778320
1181.212891	14796.760742
1179.501953	14396.063477
1177.791016	14576.867188
1176.078125	14411.500977
1174.365234	14631.635742
1172.652344	14704.248047
1170.939453	14706.779297
1169.226563	14890.219727
1167.511719	15088.163086
1165.798828	15061.435547
1164.083984	15257.790039
1162.369141	15561.920898
1160.652344	15556.960938
1158.937500	15875.454102
1157.220703	15829.634766
1155.503906	15579.947266
1153.787109	15142.543945
1152.070313	14759.197266
1150.351563	14364.378906
1148.632813	13968.281250
1146.916016	13413.798828
1145.195313	13157.711914
1143.476563	12877.020508
1141.757813	12746.186523
1140.037109	12318.919922
1138.316406	12288.529297
1136.595703	11847.029297
1134.875000	11731.064453
1133.152344	11483.012695
1131.429688	11239.427734
1129.708984	11239.789063
1127.984375	11348.981445
1126.261719	11099.785156
1124.539063	11107.426758
1122.814453	11070.110352
1121.089844	11103.848633
1119.365234	11128.875000
1117.640625	11188.666992
1115.914063	10850.011719
1114.187500	11009.782227
1112.462891	10853.784180
1110.734375	10642.839844
1109.007813	10636.083984
1107.281250	10598.940430
1105.552734	10660.196289
1103.824219	10443.696289
1102.095703	10455.788086
1100.367188	10495.344727
1098.636719	10459.714844
1096.908203	10136.508789
1095.177734	10181.886719
1093.447266	10084.234375
1091.714844	9847.982422
1089.984375	9874.622070
1088.251953	9930.118164
1086.519531	9803.743164
1084.787109	9929.930664
1083.054688	9924.786133
1081.320313	9723.500000
1079.585938	9930.362305
1077.851563	9879.087891
1076.117188	10039.698242
1074.382813	10195.912109
1072.648438	10170.539063
1070.912109	10225.832031
1069.175781	10188.943359
1067.439453	10022.504883
1065.701172	10005.827148
1063.964844	9771.874023
1062.226563	9740.873047
1060.488281	9599.135742
1058.750000	9372.623047
1057.011719	9235.345703
1055.271484	9052.136719
1053.531250	8927.925781
1051.791016	8925.885742
1050.050781	8841.976563
1048.310547	8827.031250
1046.568359	8938.430664
1044.826172	8837.348633
1043.083984	8871.202148
1041.341797	8998.293945
1039.599609	9231.467773
1037.855469	9182.032227
1036.113281	9195.700195
1034.369141	9338.364258
1032.623047	9254.542969
1030.878906	9411.453125
1029.132813	9284.679688
1027.386719	9349.858398
1025.640625	9246.062500
1023.894531	9211.020508
1022.148438	9183.148438
1020.400391	9053.706055
1018.652344	9134.592773
1016.904297	8998.068359
1015.156250	9063.201172
1013.406250	8913.889648
1011.658203	8868.969727
1009.908203	8902.651367
1008.158203	8937.745117
1006.408203	8968.538086
1004.656250	8997.887695
1002.904297	9062.909180
1001.152344	9013.729492
999.400391	9094.411133
997.648438	8995.318359
995.896484	9043.163086
994.142578	9062.468750
992.388672	8966.300781
990.634766	9373.255859
988.878906	9297.005859
987.125000	9267.798828
985.369141	9252.845703
983.613281	8998.692383
981.857422	9103.381836
980.099609	8923.384766
978.343750	9001.006836
976.585938	8866.634766
974.828125	8931.432617
973.070313	8952.122070
971.310547	8783.734375
969.552734	8771.757813
967.792969	8788.204102
966.033203	8867.146484
964.273438	9027.003906
962.511719	9276.241211
960.750000	9443.027344
958.990234	9516.064453
957.226563	9813.256836
955.464844	9701.755859
953.703125	9780.352539
951.939453	9494.501953
950.175781	9463.953125
948.412109	9209.486328
946.648438	9102.500000
944.882813	9073.476563
943.117188	8870.260742
941.351563	8706.785156
939.585938	8701.936523
937.820313	8633.400391
936.052734	8570.554688
934.285156	8459.638672
932.517578	8194.612305
930.750000	8143.221680
928.982422	8166.778320
927.212891	8147.923340
925.443359	8100.815430
923.673828	8072.094238
921.904297	8013.725586
920.132813	8218.020508
918.361328	8024.120117
916.591797	7992.617188
914.818359	8013.336426
913.046875	7860.526855
911.275391	7974.351563
909.501953	7856.872070
907.728516	7829.669922
905.955078	7920.869141
904.179688	7869.708496
902.406250	7993.256348
900.630859	7982.945313
898.855469	8159.915039
897.080078	8138.306152
895.302734	8196.930664
893.525391	8173.914551
891.750000	8238.128906
889.970703	8044.931152
888.193359	7934.783691
886.416016	7999.006836
884.636719	7929.678711
882.857422	7891.295898
881.078125	7754.592285
879.296875	7766.828125
877.517578	7668.128418
875.736328	7707.049805
873.955078	7685.601563
872.173828	7610.841797
870.390625	7655.358398
868.609375	7559.601074
866.826172	7661.597656
865.042969	7609.339844
863.259766	7659.418457
861.474609	7680.047363
859.689453	7801.529785
857.904297	7739.481445
856.119141	7926.702148
854.333984	7853.453125
852.546875	7662.672852
850.761719	7725.245117
848.974609	7780.792480
847.185547	7787.362305
845.398438	7753.378906
843.609375	7706.829102
841.822266	7850.375000
840.031250	7787.055664
838.242188	7869.047852
836.453125	7904.912598
834.662109	7887.700195
832.871094	7832.804199
831.080078	8050.083496
829.289063	8020.289063
827.496094	8067.232422
825.703125	8217.358398
823.910156	8481.748047
822.117188	8404.480469
820.324219	8332.823242
818.529297	8226.365234
816.734375	8094.882324
814.939453	7952.318359
813.144531	7988.043945
811.347656	8050.201172
809.550781	8218.099609
807.755859	8074.245605
805.957031	7809.436523
804.160156	7683.824707
802.361328	7625.010742
800.564453	7486.989258
798.765625	7369.878418
796.964844	7415.384766
795.166016	7510.876953
793.365234	7549.383789
791.564453	7737.824219
789.763672	7823.454102
787.962891	7839.652832
786.160156	7757.333496
784.359375	7718.053223
782.556641	7757.839355
780.751953	7808.697754
778.949219	7930.226074
777.144531	8069.711426
775.339844	8203.588867
773.535156	8359.565430
771.730469	8586.094727
769.925781	8827.746094
768.119141	9127.419922
766.312500	9101.740234
764.505859	8976.457031
762.697266	8490.210938
760.890625	8237.902344
759.082031	7962.208984
757.273438	7787.548828
755.464844	7771.890625
753.654297	7770.054688
751.845703	7819.326172
750.035156	7997.000000
748.224609	8198.059570
746.412109	8572.939453
744.601563	8849.665039
742.789063	9765.027344
740.976563	10860.644531
739.164063	12901.721680
737.349609	15934.462891
735.537109	19845.138672
733.722656	22987.796875
731.908203	24211.242188
730.091797	22767.560547
728.277344	19487.613281
726.460938	15723.243164
724.644531	12779.594727
722.828125	11005.599609
721.009766	9946.441406
719.193359	9442.067383
717.375000	8574.914063
715.556641	8212.700195
713.736328	8089.805664
711.917969	7755.358887
710.097656	7649.114746
708.277344	7578.629395
706.457031	7493.072754
704.636719	7521.497070
702.814453	7394.819336
700.992188	7424.624512
699.169922	7265.104980
697.347656	7345.670410
695.523438	7169.790039
693.699219	7387.421875
691.875000	7559.722656
690.050781	7559.298340
688.226563	7761.612793
686.400391	7632.403320
684.574219	7777.095703
682.748047	7701.329102
680.921875	7496.953125
679.095703	7556.742676
677.267578	7501.599121
675.439453	7573.665527
673.611328	7539.051758
671.781250	7795.609863
669.953125	7642.063477
668.123047	7678.502441
666.292969	7800.978516
664.460938	7987.581055
662.630859	7857.342285
660.798828	8097.075195
658.966797	7961.412598
657.134766	7851.736328
655.302734	7907.156250
653.468750	7808.453125
651.634766	7768.420898
649.800781	7924.683594
647.966797	8030.451660
646.130859	7982.218750
644.294922	7976.231934
642.458984	7972.970703
640.623047	7893.471191
638.787109	7958.284668
636.949219	7961.832031
635.111328	8187.128906
633.273438	8225.981445
631.435547	8324.646484
629.595703	8578.242188
627.757813	8887.442383
625.917969	8968.211914
624.076172	9013.621094
622.236328	9133.708008
620.394531	8798.857422
618.552734	8246.961914
616.710938	7923.338379
614.869141	7679.924805
613.025391	7497.671387
611.183594	7428.071289
609.339844	7313.758789
607.494141	7269.990723
605.650391	7169.322266
603.804688	7106.639160
601.958984	7048.049805
600.113281	6919.064453
598.267578	6852.422363
596.419922	6903.578613
594.572266	6942.530273
592.724609	6951.696289
590.876953	6722.787598
589.027344	6832.074707
587.179688	6818.274902
585.330078	6827.459961
583.480469	6775.828125
581.628906	6855.272949
579.779297	6780.695801
577.927734	6914.117188
576.076172	6935.416504
574.222656	7043.090332
572.371094	7041.407227
570.517578	7135.512207
568.664063	7190.456543
566.810547	7358.645996
564.955078	7474.176758
563.101563	7237.866699
561.246094	7267.128906
559.390625	7219.587402
557.533203	7135.702148
555.677734	6980.489746
553.820313	6994.975098
551.962891	7047.138184
550.105469	6819.395020
548.246094	6828.526367
546.386719	6676.259766
544.527344	6760.718262
542.667969	6823.626953
540.808594	6819.306152
538.947266	6837.829590
537.085938	6837.536621
535.224609	6841.272461
533.363281	6889.314453
531.500000	6663.491211
529.638672	6570.637695
527.775391	6601.266113
525.910156	6662.731934
524.046875	6820.725586
522.181641	7067.132813
520.316406	7653.892578
518.451172	7460.423828
516.585938	6866.448242
514.718750	6667.901367
512.851563	6517.659180
510.984375	6459.867188
509.117188	6383.363770
507.250000	6417.966309
505.380859	6382.982422
503.511719	6433.618164
501.642578	6319.750000
499.771484	6284.813965
497.902344	6336.771973
496.031250	6193.609375
494.160156	6149.375488
492.287109	6109.169434
490.416016	6157.112305
488.542969	6116.922363
486.669922	6112.787598
484.796875	6027.259277
482.921875	6120.531250
481.046875	6175.081055
479.171875	6114.932129
477.296875	6234.776367
475.421875	6301.252930
473.544922	6203.807617
471.667969	6330.204102
469.791016	6194.176270
467.914063	6241.956543
466.035156	6291.044434
464.156250	6324.138672
462.277344	6367.860840
460.398438	6100.294922
458.519531	6206.553223
456.638672	6202.406738
454.757813	6212.883301
452.876953	6139.632324
450.994141	6174.033203
449.113281	6155.285645
447.230469	6079.444336
445.347656	6036.830078
443.462891	5947.779297
441.580078	5911.851563
439.695313	5979.422852
437.810547	5943.503418
435.925781	5979.208984
434.039063	5866.413574
432.152344	5789.458008
430.267578	5850.350586
428.378906	5848.948242
426.492188	5832.977051
424.603516	5952.077148
422.714844	5953.298340
420.826172	5941.283691
418.937500	5827.387207
417.046875	5743.971680
415.158203	5806.078125
413.265625	5759.730469
411.375000	5801.973633
409.484375	5919.528809
407.591797	5760.875488
405.699219	5833.469727
403.806641	5816.224121
401.912109	5834.635254
400.019531	5734.234375
