#Wave		#Intensity
1585.210938	13227.532227
1584.209961	13150.105469
1583.208984	13129.901367
1582.208008	13204.575195
1581.206055	13284.210938
1580.204102	13029.406250
1579.202148	13141.479492
1578.200195	13096.349609
1577.198242	12971.429688
1576.195313	13238.041992
1575.192383	13192.918945
1574.189453	13160.276367
1573.186523	13237.292969
1572.182617	13274.415039
1571.178711	13054.954102
1570.174805	13156.847656
1569.170898	12999.750000
1568.166992	13011.994141
1567.162109	13198.453125
1566.158203	12984.209961
1565.153320	13008.886719
1564.147461	12779.846680
1563.142578	13130.327148
1562.136719	12936.163086
1561.130859	13229.291992
1560.125000	13470.108398
1559.119141	13544.345703
1558.113281	13722.890625
1557.106445	13834.299805
1556.099609	14107.070313
1555.092773	14434.347656
1554.084961	14374.268555
1553.078125	14438.296875
1552.070313	14656.129883
1551.062500	14648.133789
1550.054688	14642.621094
1549.045898	14701.579102
1548.038086	14465.500977
1547.029297	14224.562500
1546.020508	14139.840820
1545.011719	13978.350586
1544.001953	13992.795898
1542.992188	13685.286133
1541.982422	13506.655273
1540.972656	13137.484375
1539.962891	12956.565430
1538.952148	13065.234375
1537.942383	12891.826172
1536.931641	12701.174805
1535.919922	12832.083984
1534.909180	12957.993164
1533.897461	12713.062500
1532.886719	12542.375000
1531.874023	12520.010742
1530.862305	12631.056641
1529.850586	12317.237305
1528.837891	12657.927734
1527.825195	12561.491211
1526.812500	12472.498047
1525.799805	12504.464844
1524.786133	12373.576172
1523.772461	12482.019531
1522.758789	12585.485352
1521.745117	12730.826172
1520.731445	12518.642578
1519.716797	12723.089844
1518.702148	12540.565430
1517.687500	12424.635742
1516.672852	12478.717773
1515.657227	12724.868164
1514.642578	12732.081055
1513.626953	12776.216797
1512.610352	12918.781250
1511.594727	12704.487305
1510.579102	12509.962891
1509.562500	12718.902344
1508.545898	12662.166992
1507.529297	12848.859375
1506.511719	12799.493164
1505.494141	12850.910156
1504.477539	12968.646484
1503.458984	12821.020508
1502.441406	13174.498047
1501.423828	12901.654297
1500.405273	12844.969727
1499.386719	13114.765625
1498.368164	13136.589844
1497.348633	13092.157227
1496.330078	13234.173828
1495.310547	13096.542969
1494.291016	13137.965820
1493.271484	13321.558594
1492.250977	13174.188477
1491.231445	13325.839844
1490.210938	13335.328125
1489.190430	13312.968750
1488.168945	13263.678711
1487.148438	13319.693359
1486.126953	13554.384766
1485.105469	13238.300781
1484.083984	13680.901367
1483.061523	13479.903320
1482.040039	13667.892578
1481.017578	13980.518555
1479.995117	13689.119141
1478.971680	13771.835938
1477.949219	14052.473633
1476.925781	14289.013672
1475.902344	14391.094727
1474.878906	14620.136719
1473.855469	14807.572266
1472.831055	15046.197266
1471.806641	15211.496094
1470.782227	15525.588867
1469.757813	15749.274414
1468.733398	16202.166016
1467.708008	16530.488281
1466.682617	16992.781250
1465.657227	17762.048828
1464.631836	18467.625000
1463.605469	19150.976563
1462.579102	19687.865234
1461.552734	20348.755859
1460.526367	20987.453125
1459.500000	21333.708984
1458.472656	21304.937500
1457.445313	21344.324219
1456.417969	21033.298828
1455.390625	20739.431641
1454.362305	19922.748047
1453.334961	19510.074219
1452.306641	18796.093750
1451.277344	18493.207031
1450.249023	17597.464844
1449.219727	17088.421875
1448.191406	17019.283203
1447.162109	16505.712891
1446.131836	16053.061523
1445.102539	15804.526367
1444.072266	15803.669922
1443.041992	15540.727539
1442.011719	15510.810547
1440.981445	15129.175781
1439.950195	15077.528320
1438.918945	14926.487305
1437.887695	14642.177734
1436.856445	14605.203125
1435.825195	14585.205078
1434.792969	14582.172852
1433.760742	14177.058594
1432.728516	14188.640625
1431.696289	14045.262695
1430.663086	13793.011719
1429.629883	13681.236328
1428.596680	13627.577148
1427.563477	13527.976563
1426.530273	13435.671875
1425.496094	13353.078125
1424.461914	13425.247070
1423.427734	13173.487305
1422.393555	13035.414063
1421.358398	13356.464844
1420.323242	13133.861328
1419.288086	13145.619141
1418.252930	13118.736328
1417.217773	13241.541016
1416.181641	13096.379883
1415.145508	13197.417969
1414.109375	13467.296875
1413.073242	13655.050781
1412.036133	13623.267578
1411.000000	13743.397461
1409.962891	14172.036133
1408.924805	14422.146484
1407.887695	14754.078125
1406.849609	15177.417969
1405.812500	15701.741211
1404.773438	16194.540039
1403.735352	16602.865234
1402.697266	17396.158203
1401.658203	17707.796875
1400.619141	18134.798828
1399.580078	18347.521484
1398.540039	18377.367188
1397.500977	18513.001953
1396.460938	18153.335938
1395.420898	18257.710938
1394.380859	17845.376953
1393.339844	17656.654297
1392.298828	17494.433594
1391.257813	17337.080078
1390.216797	17203.804688
1389.175781	17399.462891
1388.133789	17331.029297
1387.091797	17624.960938
1386.049805	18271.433594
1385.007813	18174.074219
1383.964844	19115.125000
1382.922852	19710.529297
1381.879883	20679.628906
1380.835938	21713.029297
1379.792969	22089.470703
1378.749023	22976.011719
1377.706055	23845.416016
1376.661133	23684.785156
1375.617188	24038.947266
1374.573242	24084.189453
1373.528320	24253.849609
1372.483398	24150.685547
1371.438477	23609.810547
1370.392578	23073.943359
1369.347656	22772.625000
1368.301758	22198.904297
1367.255859	21424.656250
1366.208984	20961.376953
1365.163086	20178.152344
1364.116211	19877.746094
1363.069336	19348.210938
1362.022461	19124.503906
1360.974609	18705.150391
1359.927734	18701.234375
1358.879883	18387.128906
1357.832031	18528.798828
1356.783203	18622.708984
1355.735352	18702.269531
1354.686523	18979.673828
1353.637695	19259.343750
1352.588867	19743.841797
1351.539063	20149.509766
1350.490234	20909.935547
1349.440430	21822.464844
1348.390625	22732.226563
1347.339844	23808.248047
1346.290039	24367.337891
1345.239258	25309.306641
1344.188477	26417.412109
1343.137695	27206.322266
1342.085938	27859.345703
1341.034180	28462.166016
1339.982422	29007.681641
1338.930664	29826.273438
1337.878906	30428.294922
1336.826172	30407.654297
1335.773438	30714.785156
1334.720703	30703.587891
1333.667969	30402.753906
1332.614258	29774.484375
1331.561523	29594.996094
1330.507813	29154.591797
1329.453125	28674.046875
1328.399414	27788.154297
1327.344727	27168.197266
1326.290039	26145.496094
1325.235352	25649.386719
1324.180664	24850.173828
1323.125000	24712.279297
1322.070313	23825.955078
1321.014648	23228.914063
1319.958008	22885.458984
1318.902344	22490.070313
1317.845703	21728.017578
1316.789063	21333.033203
1315.732422	21018.646484
1314.675781	20292.857422
1313.618164	20068.675781
1312.560547	19920.238281
1311.502930	19216.406250
1310.445313	18768.087891
1309.386719	18482.980469
1308.329102	18427.121094
1307.270508	17863.527344
1306.210938	17718.095703
1305.152344	17372.066406
1304.092773	16868.050781
1303.033203	16942.365234
1301.973633	16613.228516
1300.914063	16140.351563
1299.853516	15861.042969
1298.792969	15678.514648
1297.732422	15505.491211
1296.671875	15509.290039
1295.611328	15341.084961
1294.549805	15177.662109
1293.488281	15136.775391
1292.426758	14959.333984
1291.364258	14930.279297
1290.302734	15033.043945
1289.240234	14907.502930
1288.177734	14927.881836
1287.114258	15117.609375
1286.051758	14782.825195
1284.988281	15158.246094
1283.924805	15368.958008
1282.861328	15504.372070
1281.796875	15599.783203
1280.732422	16054.583008
1279.667969	16506.841797
1278.603516	16944.816406
1277.539063	17504.689453
1276.473633	17735.708984
1275.408203	18208.345703
1274.342773	18537.658203
1273.277344	18519.660156
1272.210938	18590.789063
1271.145508	18701.746094
1270.079102	18165.640625
1269.011719	18084.449219
1267.945313	17972.828125
1266.877930	17315.390625
1265.810547	17185.238281
1264.743164	16425.205078
1263.674805	16166.524414
1262.607422	15697.282227
1261.539063	15310.147461
1260.470703	15126.737305
1259.401367	14859.189453
1258.333008	14626.835938
1257.263672	14380.549805
1256.194336	14167.096680
1255.125000	14063.586914
1254.054688	13915.719727
1252.985352	13833.331055
1251.915039	13550.095703
1250.843750	13626.620117
1249.773438	13663.417969
1248.702148	13735.214844
1247.630859	13365.884766
1246.559570	13470.378906
1245.488281	13446.520508
1244.416016	13341.040039
1243.343750	13417.487305
1242.271484	13354.019531
1241.199219	13234.636719
1240.125977	13420.582031
1239.053711	13450.345703
1237.980469	13487.083984
1236.906250	13463.253906
1235.833008	13451.076172
1234.758789	13587.886719
1233.684570	13689.726563
1232.610352	13740.331055
1231.536133	13604.799805
1230.460938	13925.203125
1229.385742	13808.291992
1228.310547	13954.145508
1227.235352	13809.381836
1226.159180	13797.143555
1225.083008	14049.780273
1224.006836	13651.885742
1222.930664	13683.811523
1221.853516	13685.537109
1220.777344	13698.869141
1219.700195	14048.731445
1218.622070	13556.117188
1217.544922	13622.823242
1216.466797	13631.513672
1215.388672	13559.034180
1214.310547	13850.585938
1213.232422	13873.125977
1212.153320	13719.526367
1211.074219	13820.860352
1209.995117	13968.480469
1208.916016	14025.711914
1207.835938	14205.638672
1206.755859	14026.661133
1205.675781	14100.041992
1204.595703	14057.688477
1203.514648	14290.662109
1202.434570	14019.293945
1201.353516	14326.174805
1200.271484	14140.458008
1199.190430	14035.723633
1198.108398	13995.742188
1197.026367	13946.535156
1195.944336	13848.835938
1194.862305	13670.342773
1193.779297	13575.051758
1192.696289	13320.508789
1191.613281	13409.977539
1190.530273	13097.886719
1189.446289	13037.402344
1188.362305	12870.837891
1187.278320	12531.386719
1186.194336	12524.088867
1185.109375	12641.268555
1184.024414	12544.067383
1182.939453	12430.777344
1181.854492	12317.535156
1180.768555	12324.103516
1179.683594	12171.786133
1178.597656	12162.266602
1177.510742	12067.587891
1176.424805	12076.501953
1175.337891	12041.698242
1174.250977	11866.597656
1173.164063	11827.252930
1172.077148	11845.403320
1170.989258	11904.921875
1169.901367	11796.645508
1168.813477	11727.474609
1167.724609	11890.351563
1166.636719	11965.881836
1165.547852	11784.202148
1164.458984	11788.552734
1163.369141	11873.234375
1162.280273	11884.447266
1161.190430	11836.002930
1160.100586	11950.435547
1159.010742	11872.183594
1157.919922	11883.382813
1156.829102	11915.206055
1155.738281	11761.381836
1154.647461	11848.206055
1153.555664	11934.992188
1152.464844	11898.064453
1151.373047	12264.156250
1150.280273	12266.089844
1149.188477	12428.237305
1148.095703	12379.789063
1147.002930	12518.962891
1145.910156	12777.015625
1144.817383	12646.194336
1143.723633	12611.455078
1142.629883	12604.159180
1141.536133	12628.861328
1140.441406	12674.114258
1139.347656	12500.048828
1138.252930	12483.643555
1137.158203	12460.394531
1136.062500	12501.075195
1134.967773	12272.415039
1133.872070	12214.995117
1132.776367	12337.830078
1131.679688	12401.307617
1130.583984	12223.031250
1129.487305	12279.664063
1128.390625	12251.931641
1127.292969	12347.273438
1126.196289	12326.372070
1125.098633	12294.088867
1124.000977	12227.656250
1122.903320	12222.730469
1121.804688	12190.487305
1120.706055	12110.461914
1119.607422	12276.221680
1118.508789	12207.584961
1117.409180	12175.369141
1116.310547	12238.673828
1115.210938	12192.822266
1114.110352	12087.890625
1113.010742	11987.548828
1111.910156	11714.575195
1110.809570	12007.331055
1109.708984	11952.490234
1108.607422	11972.599609
1107.506836	12006.319336
1106.405273	12219.319336
1105.303711	11805.961914
1104.201172	11817.007813
1103.098633	11723.715820
1101.996094	11687.152344
1100.893555	11718.617188
1099.791016	11716.068359
1098.687500	11822.292969
1097.583984	11520.659180
1096.480469	11463.789063
1095.376953	11443.175781
1094.272461	11585.589844
1093.167969	11458.566406
1092.063477	11501.333984
1090.958008	11356.281250
1089.853516	11444.292969
1088.748047	11405.612305
1087.642578	11430.260742
1086.536133	11454.897461
1085.430664	11574.450195
1084.324219	11449.902344
1083.217773	11336.704102
1082.110352	11363.593750
1081.003906	11568.871094
1079.896484	11327.026367
1078.789063	11518.676758
1077.680664	11552.269531
1076.573242	11624.203125
1075.464844	11477.295898
1074.356445	11508.618164
1073.247070	11555.708984
1072.138672	11465.266602
1071.029297	11733.214844
1069.919922	11665.304688
1068.809570	11365.384766
1067.700195	11473.262695
1066.589844	11504.530273
1065.479492	11558.296875
1064.368164	11546.763672
1063.257813	11577.992188
1062.146484	11768.944336
1061.035156	11557.178711
1059.922852	11588.380859
1058.811523	11702.757813
1057.699219	11500.133789
1056.586914	11594.250977
1055.473633	11757.980469
1054.361328	11719.460938
1053.248047	11478.826172
1052.134766	11503.254883
1051.021484	11630.937500
1049.907227	11587.986328
1048.792969	11495.687500
1047.678711	11616.554688
1046.564453	11723.910156
1045.449219	11636.123047
1044.333984	11871.216797
1043.218750	11727.397461
1042.103516	12069.933594
1040.987305	11829.790039
1039.871094	11742.071289
1038.754883	11925.370117
1037.638672	12012.309570
1036.521484	12155.172852
1035.404297	12174.880859
1034.287109	12161.015625
1033.169922	11950.295898
1032.051758	12388.268555
1030.933594	12356.473633
1029.815430	12309.042969
1028.697266	12355.505859
1027.578125	12448.873047
1026.458984	12656.136719
1025.339844	12633.247070
1024.220703	12704.157227
1023.100586	12951.411133
1021.980469	12805.701172
1020.860352	13039.432617
1019.740234	13054.407227
1018.619141	13096.142578
1017.498047	13070.953125
1016.376953	12974.423828
1015.255859	13076.333008
1014.133789	12990.987305
1013.011719	12968.066406
1011.889648	13009.758789
1010.767578	13133.836914
1009.644531	12992.880859
1008.521484	13343.981445
1007.398438	13183.006836
1006.274414	13073.283203
1005.151367	13010.326172
1004.027344	12974.086914
1002.902344	12948.982422
1001.778320	12837.178711
1000.653320	12745.429688
999.528320	12687.053711
998.403320	12659.807617
997.278320	12386.006836
996.152344	12412.136719
995.026367	12715.793945
993.900391	12371.125977
992.773438	12574.785156
991.646484	12414.462891
990.519531	12409.494141
989.392578	12408.963867
988.265625	12426.170898
987.137695	12485.489258
986.009766	12436.177734
984.881836	12395.750977
983.752930	12674.359375
982.624023	12667.119141
981.495117	12569.088867
980.366211	12526.450195
979.236328	12448.413086
978.106445	12560.724609
976.976563	12356.602539
975.846680	12566.208984
974.715820	12525.823242
973.585938	12335.107422
972.454102	12332.367188
971.323242	12258.907227
970.191406	12497.020508
969.060547	12704.100586
967.927734	12628.395508
966.795898	12559.346680
965.663086	12578.629883
964.530273	12975.309570
963.397461	13043.034180
962.264648	13311.479492
961.130859	13346.012695
959.997070	13453.296875
958.863281	13547.305664
957.729492	13553.105469
956.594727	13428.888672
955.459961	13414.881836
954.325195	13292.951172
953.189453	13118.221680
952.053711	12939.165039
950.917969	12828.423828
949.782227	12497.663086
948.646484	12349.664063
947.509766	12234.725586
946.373047	12124.235352
945.235352	12073.159180
944.098633	12156.196289
942.960938	12058.981445
941.823242	12139.785156
940.685547	11976.711914
939.546875	12156.328125
938.408203	12006.496094
937.269531	12150.898438
936.129883	12150.378906
934.991211	12443.895508
933.851563	12335.811523
932.711914	12192.681641
931.571289	12345.647461
930.431641	12171.884766
929.291016	12419.034180
928.149414	12484.188477
927.008789	12343.371094
925.867188	12515.839844
924.725586	12683.850586
923.583984	12501.480469
922.441406	12345.458008
921.299805	12283.607422
920.157227	12153.956055
919.013672	12087.798828
917.871094	11982.303711
916.727539	11780.651367
915.583984	11644.666992
914.439453	11736.033203
913.295898	11674.408203
912.151367	11462.078125
911.006836	11415.828125
909.861328	11526.810547
908.716797	11598.448242
907.571289	11578.385742
906.424805	11728.531250
905.279297	11451.022461
904.132813	11570.591797
902.986328	11456.784180
901.839844	11478.193359
900.692383	11560.620117
899.545898	11547.127930
898.398438	11487.889648
897.250000	11598.571289
896.102539	11521.924805
894.954102	11639.078125
893.805664	11542.865234
892.656250	11559.855469
891.507813	11596.417969
890.358398	11467.648438
889.208984	11499.864258
888.058594	11536.413086
886.908203	11394.698242
885.758789	11381.266602
884.607422	11196.194336
883.457031	11269.702148
882.305664	11304.084961
881.154297	11232.057617
880.002930	11170.916016
878.850586	11237.849609
877.698242	11213.619141
876.545898	11306.541992
875.393555	11141.331055
874.240234	11299.277344
873.086914	11140.643555
871.933594	11107.788086
870.780273	11070.612305
869.625977	11113.609375
868.471680	10991.977539
867.317383	11037.135742
866.162109	11207.838867
865.007813	11077.607422
863.852539	10921.465820
862.696289	11176.452148
861.541016	11182.580078
860.384766	11188.704102
859.228516	11125.640625
858.072266	10995.597656
856.915039	11027.689453
855.757813	11072.728516
854.600586	11072.385742
853.442383	11180.019531
852.285156	11030.674805
851.126953	10939.678711
849.968750	11116.325195
848.809570	11068.500977
847.650391	11137.181641
846.491211	11091.528320
845.332031	10899.278320
844.171875	11069.262695
843.012695	11099.083984
841.851563	10922.041992
840.691406	10904.489258
839.530273	11054.931641
838.369141	11026.588867
837.208008	11112.352539
836.046875	10972.090820
834.884766	10872.775391
833.722656	11053.167969
832.560547	11270.041016
831.397461	11101.913086
830.234375	10989.755859
829.071289	10957.172852
827.908203	10866.585938
826.744141	11012.355469
825.580078	11106.508789
824.416016	11088.957031
823.251953	11204.517578
822.086914	11107.533203
820.921875	11295.996094
819.756836	11074.598633
818.590820	11194.344727
817.425781	11238.978516
816.259766	11191.402344
815.092773	10888.775391
813.926758	11100.597656
812.759766	10950.243164
811.592773	10913.482422
810.424805	11095.170898
809.257813	11011.289063
808.089844	11132.935547
806.920898	10959.199219
805.752930	10894.659180
804.583984	10911.431641
803.415039	11148.471680
802.246094	11004.819336
801.076172	11085.681641
799.906250	11016.906250
798.736328	11089.180664
797.566406	10853.814453
796.395508	11131.115234
795.224609	11339.962891
794.053711	11388.612305
792.881836	11541.815430
791.710938	11682.144531
790.538086	11820.275391
789.366211	11674.687500
788.194336	11778.638672
787.021484	11662.968750
785.848633	11630.471680
784.674805	11568.156250
783.500977	11465.392578
782.327148	11322.208008
781.153320	11400.540039
779.979492	11142.474609
778.804688	11148.445313
777.629883	11235.271484
776.454102	11041.240234
775.279297	11059.989258
774.103516	11180.796875
772.927734	11176.117188
771.750977	11303.217773
770.575195	11453.634766
769.398438	11219.448242
768.220703	11216.884766
767.043945	11322.620117
765.866211	11182.035156
764.688477	11402.347656
763.510742	11452.791992
762.332031	11386.526367
761.153320	11413.617188
759.974609	11693.048828
758.794922	11802.740234
757.616211	11859.390625
756.436523	11947.800781
755.255859	12275.580078
754.076172	12562.961914
752.895508	12617.264648
751.714844	12900.201172
750.533203	13386.212891
749.352539	13846.605469
748.170898	14571.256836
746.988281	15388.648438
745.806641	16491.160156
744.624023	18176.714844
743.441406	20876.132813
742.258789	24130.121094
741.075195	28633.425781
739.891602	33808.511719
738.708008	40630.605469
737.523438	46617.679688
736.339844	51831.515625
735.155273	55504.453125
733.969727	56848.421875
732.785156	55542.281250
731.599609	51830.382813
730.414063	47512.933594
729.227539	41664.937500
728.041992	35764.824219
726.855469	30048.621094
725.667969	25697.988281
724.481445	21764.246094
723.293945	19384.136719
722.106445	17304.042969
720.918945	15744.747070
719.730469	15151.969727
718.541992	14220.773438
717.353516	13428.813477
716.164063	12773.892578
714.975586	12367.332031
713.786133	12484.289063
712.595703	12023.348633
711.406250	11835.717773
710.215820	11717.481445
709.025391	11886.971680
707.833984	11747.783203
706.642578	11617.052734
705.451172	11339.498047
704.259766	11460.664063
703.068359	11378.327148
701.875977	11358.934570
700.683594	11331.165039
699.490234	11502.520508
698.297852	11451.678711
697.104492	11467.898438
695.910156	11593.023438
694.716797	11908.644531
693.522461	11931.025391
692.328125	12120.838867
691.132813	12197.566406
689.938477	12468.820313
688.743164	12468.041016
687.547852	12720.286133
686.351563	12694.359375
685.155273	12524.222656
683.958984	12400.135742
682.762695	12242.678711
681.565430	12083.204102
680.368164	11925.890625
679.170898	11756.122070
677.973633	11634.438477
676.775391	11665.144531
675.577148	11518.500977
674.378906	11622.221680
673.179688	11527.787109
671.980469	11583.504883
670.781250	11570.412109
669.581055	11699.029297
668.381836	11550.491211
667.181641	11654.056641
665.980469	11584.729492
664.780273	11532.088867
663.579102	11860.386719
662.377930	11847.244141
661.175781	12081.691406
659.973633	12301.469727
658.771484	12300.709961
657.569336	12601.418945
656.367188	12877.044922
655.164063	12971.744141
653.960938	13305.329102
652.756836	13399.884766
651.552734	13529.698242
650.348633	13499.583008
649.144531	13722.720703
647.939453	13991.410156
646.735352	13971.579102
645.529297	13885.379883
644.324219	14106.143555
643.118164	13932.870117
641.912109	14049.876953
640.706055	14071.498047
639.499023	14192.560547
638.292969	14423.351563
637.084961	14393.094727
635.877930	14650.646484
634.669922	15017.788086
633.461914	15059.844727
632.253906	15337.750977
631.044922	15698.270508
629.836914	15651.209961
628.626953	15784.051758
627.417969	15532.346680
626.208008	15586.619141
624.998047	15337.140625
623.788086	14858.484375
622.577148	14491.569336
621.366211	14052.558594
620.155273	13820.174805
618.944336	13426.922852
617.732422	12877.041992
616.520508	12735.852539
615.308594	12524.607422
614.095703	12212.428711
612.882813	12036.445313
611.669922	11879.090820
610.457031	11719.747070
609.243164	11562.537109
608.029297	11621.644531
606.815430	11386.286133
605.600586	11342.478516
604.385742	11339.851563
603.170898	11271.382813
601.955078	11328.427734
600.740234	11288.785156
599.524414	11399.257813
598.307617	11334.947266
597.091797	11270.665039
595.875000	11185.865234
594.658203	11209.979492
593.440430	11166.306641
592.222656	11100.067383
591.004883	11335.621094
589.787109	11138.022461
588.568359	11258.551758
587.349609	11303.125000
586.130859	11206.163086
584.912109	11271.229492
583.692383	11360.865234
582.472656	11432.012695
581.251953	11486.734375
580.032227	11635.663086
578.811523	11798.858398
577.589844	11695.791016
576.369141	11869.129883
575.147461	11890.937500
573.925781	12066.196289
572.703125	12196.367188
571.481445	12195.583984
570.258789	12313.394531
569.035156	12369.822266
567.812500	12532.500000
566.588867	12597.022461
565.365234	12769.785156
564.140625	12621.814453
562.916992	12667.892578
561.692383	12493.474609
560.466797	12541.599609
559.242188	12426.463867
558.016602	12572.500977
556.791016	12475.765625
555.564453	12409.660156
554.337891	12223.308594
553.111328	12218.434570
551.884766	12244.125977
550.657227	12198.503906
549.429688	12207.893555
548.202148	12111.394531
546.974609	12094.333984
545.746094	11894.105469
544.517578	12096.859375
543.288086	12094.051758
542.058594	12253.953125
540.829102	12245.008789
539.599609	12225.903320
538.370117	12367.368164
537.139648	12075.958984
535.909180	12233.643555
534.677734	12182.058594
533.446289	11968.053711
532.214844	11898.283203
530.983398	11739.241211
529.750977	11714.195313
528.519531	11695.246094
527.286133	11388.302734
526.053711	11612.763672
524.820313	11640.475586
523.586914	11674.254883
522.353516	11641.150391
521.119141	11496.638672
519.884766	11625.618164
518.650391	11531.798828
517.415039	11512.925781
516.179688	11396.910156
514.944336	11485.321289
513.708984	11379.480469
