#Wave		#Intensity
2109.224609	13292.936523
2107.712891	13208.583984
2106.201172	13056.902344
2104.687500	13054.080078
2103.175781	13196.712891
2101.662109	13203.776367
2100.150391	12936.575195
2098.636719	13016.372070
2097.123047	13148.981445
2095.607422	13194.025391
2094.093750	13069.022461
2092.578125	13279.103516
2091.064453	13126.084961
2089.548828	13149.649414
2088.033203	13049.503906
2086.517578	13122.543945
2085.000000	13119.715820
2083.484375	13159.744141
2081.966797	13072.866211
2080.449219	13004.149414
2078.931641	13119.948242
2077.414063	13024.901367
2075.894531	13013.865234
2074.376953	12997.896484
2072.857422	13120.180664
2071.337891	13148.623047
2069.818359	13007.609375
2068.298828	13126.523438
2066.777344	13164.811523
2065.257813	13063.342773
2063.736328	13070.398438
2062.214844	13093.884766
2060.693359	13125.575195
2059.171875	12924.002930
2057.648438	13069.032227
2056.126953	12880.693359
2054.603516	13114.313477
2053.080078	12860.397461
2051.556641	12957.731445
2050.033203	13153.453125
2048.507813	12861.969727
2046.984375	13136.337891
2045.458984	12948.266602
2043.933594	12884.847656
2042.408203	12959.108398
2040.882813	12907.182617
2039.355469	13050.204102
2037.830078	13099.816406
2036.302734	13234.549805
2034.775391	12977.986328
2033.248047	12775.541016
2031.718750	12926.619141
2030.191406	12858.417969
2028.662109	13030.676758
2027.134766	13011.539063
2025.605469	13020.202148
2024.076172	13063.187500
2022.544922	13024.444336
2021.015625	13091.917969
2019.484375	12950.275391
2017.955078	13040.599609
2016.423828	12841.880859
2014.892578	12940.351563
2013.359375	12999.609375
2011.828125	13049.051758
2010.294922	13126.207031
2008.761719	12947.253906
2007.230469	12897.202148
2005.695313	12936.841797
2004.162109	13044.923828
2002.628906	13042.143555
2001.093750	12917.166016
1999.558594	12925.816406
1998.023438	12921.433594
1996.488281	12954.503906
1994.953125	12818.254883
1993.417969	13020.599609
1991.880859	12985.283203
1990.343750	12715.709961
1988.806641	12958.610352
1987.269531	12858.281250
1985.732422	12839.287109
1984.193359	13025.113281
1982.656250	12755.817383
1981.117188	12751.479492
1979.578125	12766.636719
1978.039063	12781.787109
1976.500000	13008.021484
1974.958984	12800.704102
1973.417969	12945.683594
1971.878906	12910.478516
1970.337891	12849.329102
1968.796875	12879.040039
1967.253906	12791.975586
1965.712891	12912.481445
1964.169922	12796.267578
1962.626953	12881.066406
1961.083984	12959.347656
1959.541016	12741.138672
1957.998047	12803.219727
1956.455078	12687.152344
1954.910156	12805.880859
1953.365234	12919.702148
1951.820313	13041.567383
1950.275391	12990.262695
1948.730469	12898.541016
1947.183594	13038.121094
1945.638672	12702.277344
1944.091797	12757.779297
1942.544922	12932.856445
1940.998047	12904.260742
1939.449219	12772.283203
1937.902344	12982.779297
1936.353516	12802.395508
1934.804688	12701.198242
1933.255859	12921.259766
1931.707031	12878.176758
1930.158203	12849.632813
1928.607422	12719.473633
1927.058594	12849.027344
1925.507813	12905.965820
1923.957031	12925.801758
1922.406250	13047.169922
1920.853516	12942.887695
1919.302734	12846.705078
1917.750000	12921.300781
1916.197266	12807.448242
1914.644531	12732.284180
1913.091797	12808.464844
1911.539063	12788.051758
1909.984375	12893.149414
1908.431641	12948.333984
1906.876953	12910.210938
1905.322266	12955.719727
1903.767578	12896.709961
1902.210938	12832.903320
1900.656250	12920.179688
1899.099609	12742.322266
1897.542969	12844.037109
1895.986328	12868.622070
1894.429688	13008.800781
1892.873047	12736.361328
1891.314453	12807.496094
1889.755859	12875.390625
1888.199219	12933.630859
1886.640625	12749.652344
1885.080078	12843.171875
1883.521484	12781.136719
1881.960938	12900.256836
1880.402344	12915.158203
1878.841797	12938.063477
1877.281250	12794.362305
1875.720703	12897.361328
1874.158203	12796.960938
1872.597656	12968.752930
1871.035156	12919.596680
1869.472656	12841.656250
1867.910156	12936.535156
1866.347656	12852.225586
1864.783203	13001.433594
1863.220703	12961.913086
1861.656250	12852.074219
1860.091797	12938.856445
1858.527344	12888.188477
1856.962891	13030.838867
1855.396484	12972.184570
1853.832031	13052.479492
1852.265625	12877.301758
1850.699219	12962.370117
1849.132813	12919.737305
1847.566406	12953.704102
1845.998047	12944.587891
1844.431641	13043.921875
1842.863281	13222.936523
1841.294922	13041.600586
1839.726563	13054.784180
1838.156250	13024.938477
1836.587891	13057.236328
1835.017578	13143.674805
1833.449219	13042.167969
1831.878906	12953.439453
1830.306641	13106.698242
1828.736328	13010.035156
1827.166016	13206.176758
1825.593750	12956.818359
1824.021484	13109.945313
1822.449219	13046.752930
1820.876953	13069.433594
1819.304688	13212.901367
1817.730469	13092.518555
1816.158203	13199.377930
1814.583984	13236.301758
1813.009766	13250.975586
1811.435547	13392.662109
1809.859375	13091.400391
1808.285156	13193.382813
1806.708984	13076.351563
1805.132813	13065.658203
1803.556641	13227.850586
1801.980469	13196.514648
1800.404297	13154.092773
1798.826172	13373.223633
1797.248047	13230.943359
1795.671875	13358.070313
1794.093750	13383.761719
1792.513672	13395.188477
1790.935547	13675.788086
1789.355469	13541.504883
1787.777344	13535.479492
1786.197266	13641.805664
1784.617188	13743.340820
1783.035156	13575.938477
1781.455078	13588.884766
1779.873047	13665.067383
1778.292969	13791.799805
1776.710938	13558.149414
1775.128906	13498.403320
1773.544922	13756.206055
1771.962891	13794.363281
1770.378906	13710.917969
1768.794922	13786.957031
1767.212891	13627.783203
1765.626953	13784.287109
1764.042969	13898.125977
1762.458984	13761.111328
1760.873047	13978.991211
1759.287109	14035.952148
1757.701172	13913.180664
1756.115234	14108.822266
1754.529297	14121.597656
1752.941406	14120.188477
1751.355469	14240.057617
1749.767578	14235.472656
1748.179688	14071.875977
1746.591797	14325.472656
1745.001953	14449.915039
1743.414063	14446.860352
1741.824219	14667.179688
1740.234375	14744.287109
1738.644531	14970.738281
1737.054688	14907.833984
1735.462891	15457.928711
1733.873047	15523.800781
1732.281250	15980.838867
1730.689453	16104.687500
1729.097656	16167.237305
1727.505859	16264.300781
1725.912109	16218.477539
1724.320313	16400.234375
1722.726563	16442.267578
1721.132813	16774.498047
1719.539063	16399.236328
1717.945313	16591.775391
1716.349609	16774.824219
1714.755859	16741.492188
1713.160156	16607.880859
1711.564453	17061.855469
1709.968750	17232.115234
1708.371094	17291.109375
1706.775391	17397.050781
1705.177734	17621.917969
1703.580078	17732.437500
1701.982422	18165.248047
1700.384766	18310.021484
1698.787109	18492.269531
1697.187500	18882.419922
1695.587891	18858.095703
1693.990234	18875.982422
1692.390625	18946.996094
1690.789063	18677.367188
1689.189453	18690.591797
1687.587891	18205.603516
1685.988281	18087.759766
1684.386719	17913.763672
1682.785156	17760.130859
1681.181641	17996.673828
1679.580078	18272.119141
1677.976563	17967.205078
1676.373047	18448.384766
1674.769531	18453.826172
1673.166016	18730.496094
1671.562500	18767.041016
1669.957031	19015.478516
1668.353516	19122.046875
1666.748047	19374.972656
1665.142578	19738.345703
1663.537109	20123.359375
1661.929688	20371.238281
1660.324219	20541.201172
1658.716797	20862.005859
1657.109375	21291.558594
1655.501953	21750.474609
1653.894531	22044.382813
1652.285156	21944.875000
1650.677734	22428.222656
1649.068359	22796.378906
1647.458984	23333.708984
1645.849609	23260.410156
1644.240234	23830.021484
1642.628906	24194.455078
1641.019531	24307.277344
1639.408203	24843.708984
1637.796875	25095.980469
1636.185547	25610.294922
1634.572266	25784.748047
1632.960938	26356.064453
1631.347656	26838.773438
1629.734375	26828.414063
1628.121094	27330.957031
1626.507813	28047.076172
1624.894531	28491.833984
1623.279297	28876.005859
1621.664063	29419.480469
1620.048828	29972.009766
1618.433594	30507.277344
1616.818359	30777.736328
1615.203125	31403.867188
1613.585938	31850.326172
1611.968750	32428.023438
1610.351563	32688.558594
1608.734375	33519.304688
1607.117188	33641.960938
1605.498047	34322.285156
1603.878906	34829.324219
1602.261719	35303.710938
1600.640625	35853.546875
1599.021484	36327.507813
1597.402344	36696.320313
1595.781250	36788.785156
1594.162109	36882.750000
1592.541016	37618.265625
1590.919922	37798.359375
1589.296875	38257.406250
1587.675781	38258.488281
1586.052734	38826.644531
1584.429688	39043.289063
1582.806641	39507.832031
1581.183594	39890.550781
1579.560547	39552.539063
1577.935547	40076.699219
1576.312500	40240.503906
1574.687500	40408.847656
1573.062500	40118.691406
1571.435547	40093.195313
1569.810547	40024.652344
1568.183594	39973.046875
1566.558594	39547.957031
1564.931641	39083.093750
1563.304688	39176.132813
1561.675781	38733.046875
1560.048828	38449.863281
1558.419922	38659.656250
1556.791016	38803.351563
1555.162109	38894.800781
1553.533203	38803.609375
1551.904297	39148.136719
1550.273438	38725.636719
1548.642578	38951.953125
1547.011719	39167.437500
1545.380859	38884.675781
1543.750000	38853.351563
1542.119141	38579.968750
1540.486328	38567.097656
1538.853516	37862.015625
1537.220703	38040.691406
1535.587891	38171.832031
1533.955078	37436.671875
1532.320313	37661.214844
1530.685547	38081.476563
1529.052734	37976.945313
1527.416016	38240.976563
1525.781250	39081.257813
1524.146484	38632.660156
1522.509766	38908.597656
1520.873047	38703.144531
1519.236328	38962.140625
1517.599609	39547.839844
1515.962891	39667.589844
1514.324219	40448.273438
1512.687500	40207.593750
1511.048828	40493.433594
1509.410156	40240.636719
1507.771484	39354.984375
1506.130859	38724.359375
1504.492188	38122.972656
1502.851563	37415.148438
1501.210938	36492.750000
1499.570313	35876.988281
1497.927734	34920.281250
1496.287109	34611.218750
1494.644531	34270.316406
1493.001953	34092.437500
1491.359375	33747.218750
1489.716797	33507.136719
1488.074219	33227.605469
1486.429688	32625.750000
1484.785156	32265.927734
1483.140625	31714.703125
1481.496094	31241.232422
1479.851563	31588.562500
1478.207031	31308.267578
1476.560547	31070.623047
1474.914063	31211.220703
1473.267578	30808.197266
1471.621094	30385.611328
1469.972656	29869.111328
1468.326172	29245.099609
1466.677734	29228.158203
1465.029297	28876.037109
1463.380859	28592.298828
1461.732422	28545.181641
1460.082031	28880.037109
1458.431641	28538.892578
1456.783203	28455.449219
1455.132813	28223.597656
1453.480469	28035.759766
1451.830078	27975.183594
1450.177734	27620.966797
1448.527344	27595.308594
1446.875000	27752.740234
1445.220703	27751.263672
1443.568359	27932.787109
1441.916016	28087.011719
1440.261719	28068.828125
1438.607422	27919.152344
1436.953125	27846.607422
1435.298828	27583.734375
1433.642578	27691.031250
1431.988281	27627.634766
1430.332031	27367.990234
1428.675781	27288.083984
1427.019531	27360.632813
1425.361328	27110.261719
1423.705078	27161.691406
1422.046875	27258.343750
1420.388672	27282.574219
1418.730469	27285.687500
1417.072266	27299.345703
1415.412109	27300.941406
1413.753906	27373.339844
1412.093750	27322.199219
1410.433594	27105.431641
1408.773438	27456.341797
1407.111328	27859.777344
1405.451172	27885.312500
1403.789063	28280.951172
1402.126953	28389.109375
1400.464844	28755.888672
1398.802734	28785.705078
1397.138672	28839.558594
1395.474609	28685.984375
1393.812500	28571.542969
1392.146484	28676.474609
1390.482422	28366.830078
1388.818359	28318.593750
1387.152344	28504.574219
1385.486328	28660.451172
1383.820313	28748.730469
1382.154297	28625.429688
1380.488281	28637.173828
1378.820313	28462.957031
1377.154297	28641.150391
1375.486328	28511.972656
1373.818359	28318.406250
1372.148438	28499.501953
1370.480469	28598.126953
1368.810547	28295.332031
1367.140625	28429.888672
1365.470703	28359.292969
1363.800781	28478.804688
1362.130859	28285.523438
1360.458984	28262.871094
1358.787109	28234.244141
1357.115234	28313.291016
1355.443359	28197.947266
1353.771484	28453.339844
1352.097656	28473.998047
1350.423828	29019.060547
1348.751953	29203.890625
1347.076172	29520.056641
1345.402344	30306.398438
1343.728516	30547.541016
1342.052734	31075.119141
1340.376953	31842.687500
1338.701172	32305.597656
1337.025391	32811.550781
1335.347656	33056.335938
1333.671875	33591.714844
1331.994141	33171.472656
1330.316406	33387.695313
1328.638672	33514.433594
1326.960938	33352.152344
1325.281250	33274.824219
1323.601563	33338.960938
1321.921875	33377.761719
1320.242188	33144.210938
1318.562500	33220.230469
1316.880859	32863.347656
1315.201172	32395.082031
1313.519531	31931.478516
1311.837891	31444.292969
1310.154297	31022.712891
1308.472656	30420.039063
1306.789063	30194.953125
1305.105469	29641.734375
1303.421875	29335.246094
1301.738281	28997.714844
1300.054688	28614.318359
1298.369141	28633.224609
1296.683594	28011.218750
1294.998047	27751.394531
1293.312500	27555.447266
1291.626953	27377.375000
1289.939453	26713.199219
1288.253906	26444.990234
1286.566406	26308.757813
1284.878906	25605.257813
1283.189453	25596.628906
1281.501953	25408.845703
1279.812500	25259.630859
1278.123047	25049.800781
1276.433594	25107.875000
1274.744141	25004.677734
1273.052734	25025.757813
1271.363281	24604.708984
1269.671875	24711.603516
1267.980469	24678.041016
1266.289063	24065.246094
1264.595703	24179.570313
1262.904297	24073.765625
1261.210938	24038.888672
1259.517578	24067.505859
1257.824219	23976.550781
1256.128906	24170.443359
1254.435547	23588.203125
1252.740234	23543.132813
1251.044922	23586.564453
1249.349609	23491.380859
1247.652344	23537.748047
1245.957031	23709.359375
1244.259766	24022.337891
1242.562500	23737.107422
1240.865234	23700.894531
1239.167969	23077.201172
1237.468750	22864.496094
1235.769531	22768.152344
1234.072266	22690.978516
1232.371094	22687.390625
1230.671875	22567.613281
1228.972656	22531.701172
1227.271484	22475.220703
1225.570313	22458.447266
1223.869141	22582.748047
1222.167969	22308.855469
1220.464844	22422.847656
1218.763672	22030.162109
1217.060547	21922.468750
1215.357422	21825.097656
1213.654297	21576.617188
1211.949219	21580.595703
1210.246094	21740.056641
1208.541016	21301.107422
1206.835938	21371.117188
1205.130859	21152.320313
1203.423828	21130.001953
1201.718750	21183.878906
1200.011719	21097.103516
1198.304688	21112.880859
1196.597656	21257.501953
1194.888672	21122.453125
1193.181641	20988.925781
1191.472656	21175.904297
1189.763672	21317.447266
1188.054688	21722.187500
1186.343750	21284.488281
1184.634766	21395.205078
1182.923828	21236.935547
1181.212891	21350.531250
1179.501953	20977.580078
1177.791016	20715.802734
1176.078125	20766.638672
1174.365234	20382.384766
1172.652344	20236.220703
1170.939453	20263.775391
1169.226563	20254.841797
1167.511719	20035.867188
1165.798828	20133.441406
1164.083984	19886.886719
1162.369141	19687.083984
1160.652344	19239.625000
1158.937500	19210.523438
1157.220703	18846.398438
1155.503906	18939.728516
1153.787109	18749.089844
1152.070313	18548.347656
1150.351563	18532.521484
1148.632813	18378.474609
1146.916016	18195.402344
1145.195313	18153.482422
1143.476563	17910.923828
1141.757813	17696.091797
1140.037109	17663.029297
1138.316406	17672.117188
1136.595703	17605.658203
1134.875000	17562.464844
1133.152344	17766.144531
1131.429688	17516.783203
1129.708984	17419.931641
1127.984375	17288.296875
1126.261719	16953.611328
1124.539063	16677.093750
1122.814453	16455.804688
1121.089844	16523.119141
1119.365234	16046.857422
1117.640625	15895.413086
1115.914063	15872.978516
1114.187500	15556.513672
1112.462891	15558.780273
1110.734375	15516.163086
1109.007813	15383.819336
1107.281250	15099.583008
1105.552734	14952.922852
1103.824219	14810.666016
1102.095703	14541.210938
1100.367188	14572.610352
1098.636719	14424.750000
1096.908203	14525.527344
1095.177734	14543.901367
1093.447266	14491.482422
1091.714844	14655.715820
1089.984375	14487.784180
1088.251953	14477.272461
1086.519531	14282.032227
1084.787109	14098.422852
1083.054688	14164.458008
1081.320313	13793.466797
1079.585938	13871.073242
1077.851563	13550.769531
1076.117188	13611.098633
1074.382813	13632.493164
1072.648438	13604.897461
1070.912109	13558.588867
1069.175781	13482.062500
1067.439453	13391.172852
1065.701172	13149.199219
1063.964844	13080.008789
1062.226563	13033.866211
1060.488281	12895.692383
1058.750000	12979.026367
1057.011719	12869.678711
1055.271484	12820.746094
1053.531250	12839.372070
1051.791016	12909.708008
1050.050781	12711.417969
1048.310547	12849.239258
1046.568359	12989.868164
1044.826172	12903.648438
1043.083984	12909.306641
1041.341797	12827.446289
1039.599609	12973.683594
1037.855469	12845.954102
1036.113281	12771.328125
1034.369141	12997.742188
1032.623047	12774.078125
1030.878906	12872.874023
1029.132813	12944.407227
1027.386719	12940.008789
1025.640625	13020.082031
1023.894531	13143.059570
1022.148438	12919.661133
1020.400391	12963.911133
1018.652344	12965.227539
1016.904297	12866.436523
1015.156250	12879.210938
1013.406250	13014.907227
1011.658203	12846.143555
1009.908203	12887.484375
1008.158203	12953.087891
1006.408203	13008.664063
1004.656250	13162.730469
1002.904297	13146.856445
1001.152344	13063.914063
999.400391	13136.529297
997.648438	13200.551758
995.896484	13193.235352
994.142578	12973.474609
992.388672	13037.486328
990.634766	12869.166016
988.878906	12897.547852
987.125000	13044.149414
985.369141	12922.937500
983.613281	13105.058594
981.857422	13066.449219
980.099609	12936.773438
978.343750	12828.498047
976.585938	12698.933594
974.828125	12806.935547
973.070313	12603.495117
971.310547	12769.750000
969.552734	12752.589844
967.792969	12867.579102
966.033203	12890.176758
964.273438	12782.101563
962.511719	12963.736328
960.750000	13278.724609
958.990234	13474.350586
957.226563	13386.099609
955.464844	13449.677734
953.703125	13057.961914
951.939453	12866.355469
950.175781	12623.801758
948.412109	12652.059570
946.648438	12350.154297
944.882813	12266.546875
943.117188	12202.804688
941.351563	12249.536133
939.585938	12211.307617
937.820313	12003.256836
936.052734	11914.160156
934.285156	11737.395508
932.517578	11755.888672
930.750000	11618.832031
928.982422	11682.579102
927.212891	11465.040039
925.443359	11647.483398
923.673828	11687.160156
921.904297	11725.405273
920.132813	11807.404297
918.361328	11731.252930
916.591797	11875.309570
914.818359	11632.671875
913.046875	11745.647461
911.275391	11831.771484
909.501953	11875.552734
907.728516	11745.914063
905.955078	11620.563477
904.179688	11489.633789
902.406250	11336.223633
900.630859	11465.976563
898.855469	11349.251953
897.080078	11280.444336
895.302734	11118.776367
893.525391	11335.695313
891.750000	11241.613281
889.970703	11170.077148
888.193359	11256.059570
886.416016	11479.769531
884.636719	11441.956055
882.857422	11609.309570
881.078125	11578.505859
879.296875	11325.804688
877.517578	11251.549805
875.736328	10976.580078
873.955078	10936.123047
872.173828	10787.638672
870.390625	10792.133789
868.609375	10960.720703
866.826172	10869.821289
865.042969	10655.599609
863.259766	10859.135742
861.474609	10684.248047
859.689453	10805.027344
857.904297	10861.324219
856.119141	10812.576172
854.333984	10740.051758
852.546875	10731.940430
850.761719	10739.223633
848.974609	10592.621094
847.185547	10636.294922
845.398438	10540.121094
843.609375	10537.652344
841.822266	10498.845703
840.031250	10534.113281
838.242188	10591.713867
836.453125	10585.041016
834.662109	10755.701172
832.871094	10691.756836
831.080078	10782.757813
829.289063	10664.416992
827.496094	10794.439453
825.703125	10810.038086
823.910156	10935.780273
822.117188	11040.551758
820.324219	11086.739258
818.529297	10876.526367
816.734375	10754.171875
814.939453	10815.709961
813.144531	10704.563477
811.347656	10715.968750
809.550781	10717.625977
807.755859	10503.615234
805.957031	10612.431641
804.160156	10566.823242
802.361328	10478.132813
800.564453	10336.660156
798.765625	10439.850586
796.964844	10495.750000
795.166016	10636.357422
793.365234	10735.234375
791.564453	10729.930664
789.763672	10803.750977
787.962891	10896.964844
786.160156	10694.603516
784.359375	10575.564453
782.556641	10485.703125
780.751953	10467.981445
778.949219	10258.975586
777.144531	10314.762695
775.339844	10262.453125
773.535156	10343.143555
771.730469	10325.471680
769.925781	10393.646484
768.119141	10515.772461
766.312500	10230.981445
764.505859	10382.140625
762.697266	10226.153320
760.890625	10456.065430
759.082031	10515.812500
757.273438	10462.186523
755.464844	10832.833008
753.654297	10585.732422
751.845703	10800.089844
750.035156	10977.059570
748.224609	11264.393555
746.412109	11667.535156
744.601563	12158.801758
742.789063	12516.010742
740.976563	13235.806641
739.164063	14664.056641
737.349609	16346.679688
735.537109	18851.365234
733.722656	21174.347656
731.908203	22613.140625
730.091797	22388.789063
728.277344	20375.792969
726.460938	17751.117188
724.644531	15356.159180
722.828125	13827.866211
721.009766	12629.091797
719.193359	11877.887695
717.375000	11370.423828
715.556641	11073.535156
713.736328	10822.142578
711.917969	10764.614258
710.097656	10642.544922
708.277344	10560.362305
706.457031	10430.159180
704.636719	10529.272461
702.814453	10426.584961
700.992188	10458.416016
699.169922	10362.651367
697.347656	10453.454102
695.523438	10544.211914
693.699219	10704.838867
691.875000	10848.942383
690.050781	10873.770508
688.226563	10869.819336
686.400391	10808.348633
684.574219	10767.444336
682.748047	10825.117188
680.921875	10550.203125
679.095703	10698.202148
677.267578	10573.916992
675.439453	10258.227539
673.611328	10430.798828
671.781250	10554.077148
669.953125	10244.082031
668.123047	10344.118164
666.292969	10215.990234
664.460938	10300.960938
662.630859	10209.766602
660.798828	10372.500977
658.966797	10365.939453
657.134766	10514.914063
655.302734	10592.888672
653.468750	10665.371094
651.634766	10733.727539
649.800781	11273.660156
647.966797	11377.267578
646.130859	11502.623047
644.294922	11411.350586
642.458984	11326.928711
640.623047	11065.563477
638.787109	11113.288086
636.949219	11072.539063
635.111328	10976.031250
633.273438	10933.972656
631.435547	10856.579102
629.595703	10873.024414
627.757813	10768.497070
625.917969	10734.677734
624.076172	10717.174805
622.236328	10658.935547
620.394531	10610.226563
618.552734	10678.288086
616.710938	10354.084961
614.869141	10442.526367
613.025391	10260.970703
611.183594	10106.625000
609.339844	10064.892578
607.494141	9907.955078
605.650391	9732.118164
603.804688	9839.544922
601.958984	9742.374023
600.113281	9723.797852
598.267578	9526.504883
596.419922	9566.194336
594.572266	9433.991211
592.724609	9485.859375
590.876953	9602.628906
589.027344	9598.984375
587.179688	9595.339844
585.330078	9553.848633
583.480469	9515.079102
581.628906	9384.455078
579.779297	9537.547852
577.927734	9442.090820
576.076172	9578.894531
574.222656	9737.227539
572.371094	9790.228516
570.517578	9797.332031
568.664063	9851.640625
566.810547	9869.512695
564.955078	9991.183594
563.101563	9902.534180
561.246094	9866.478516
559.390625	9870.855469
557.533203	9805.192383
555.677734	9464.865234
553.820313	9566.260742
551.962891	9498.023438
550.105469	9227.981445
548.246094	9256.715820
546.386719	9150.941406
544.527344	9170.265625
542.667969	9194.958008
540.808594	9200.822266
538.947266	9236.243164
537.085938	9252.838867
535.224609	9280.170898
533.363281	9029.553711
531.500000	8956.248047
529.638672	8821.242188
527.775391	8829.864258
525.910156	8986.036133
524.046875	9006.683594
522.181641	9189.551758
520.316406	9684.654297
518.451172	9489.358398
516.585938	9067.731445
514.718750	8757.480469
512.851563	8754.044922
510.984375	8663.585938
509.117188	8650.802734
507.250000	8576.468750
505.380859	8606.524414
503.511719	8748.917969
501.642578	8801.649414
499.771484	8653.818359
497.902344	8599.618164
496.031250	8687.088867
494.160156	8639.585938
492.287109	8705.632813
490.416016	8700.876953
488.542969	8614.688477
486.669922	8695.374023
484.796875	8561.190430
482.921875	8645.850586
481.046875	8583.762695
479.171875	8575.039063
477.296875	8582.315430
475.421875	8521.618164
473.544922	8410.316406
471.667969	8304.396484
469.791016	8357.010742
467.914063	8497.475586
466.035156	8362.323242
464.156250	8506.711914
462.277344	8379.604492
460.398438	8284.482422
458.519531	8181.425781
456.638672	8164.840332
454.757813	8275.869141
452.876953	8182.189941
450.994141	8249.316406
449.113281	8056.065918
447.230469	7981.096680
445.347656	8105.310547
443.462891	7956.034180
441.580078	8009.861816
439.695313	8176.432617
437.810547	8027.244629
435.925781	8006.755859
434.039063	8049.912109
432.152344	8008.220215
430.267578	7949.321289
428.378906	7902.373047
426.492188	7904.452148
424.603516	7861.509277
422.714844	7907.283203
420.826172	7881.564453
418.937500	7976.269531
417.046875	7962.451660
415.158203	7957.898438
413.265625	7929.545898
411.375000	7848.329590
409.484375	7829.267578
407.591797	7869.672852
405.699219	7738.330566
403.806641	7773.454590
401.912109	7812.522949
400.019531	7782.929688
