#Wave		#Intensity
2109.224609	5775.654297
2107.712891	5788.886230
2106.201172	5812.438477
2104.687500	5723.559082
2103.175781	5857.859375
2101.662109	5897.907227
2100.150391	5866.893555
2098.636719	5773.124512
2097.123047	5832.981934
2095.607422	5828.420898
2094.093750	5734.720703
2092.578125	5797.848633
2091.064453	5735.546387
2089.548828	5740.908203
2088.033203	5609.373535
2086.517578	5776.359863
2085.000000	5714.116211
2083.484375	5671.678711
2081.966797	5733.077637
2080.449219	5771.384277
2078.931641	5765.200195
2077.414063	5767.252930
2075.894531	5718.263672
2074.376953	5702.218262
2072.857422	5839.237305
2071.337891	5793.555176
2069.818359	5812.050781
2068.298828	5769.683594
2066.777344	5789.820313
2065.257813	5652.123047
2063.736328	5742.954102
2062.214844	5820.599609
2060.693359	5796.348633
2059.171875	5699.833496
2057.648438	5770.869629
2056.126953	5835.307129
2054.603516	5722.430176
2053.080078	5704.791016
2051.556641	5872.574707
2050.033203	5726.952637
2048.507813	5704.403320
2046.984375	5745.815430
2045.458984	5780.651855
2043.933594	5808.917480
2042.408203	5696.239258
2040.882813	5685.189453
2039.355469	5742.941406
2037.830078	5718.784668
2036.302734	5783.054199
2034.775391	5621.393066
2033.248047	5780.580566
2031.718750	5699.166504
2030.191406	5784.652344
2028.662109	5690.187500
2027.134766	5868.846680
2025.605469	5800.562500
2024.076172	5835.282715
2022.544922	5838.938477
2021.015625	5773.972168
2019.484375	5823.376953
2017.955078	5712.713379
2016.423828	5737.618652
2014.892578	5876.783691
2013.359375	5774.340332
2011.828125	5725.787598
2010.294922	5804.504395
2008.761719	5840.780762
2007.230469	5863.995605
2005.695313	5851.332520
2004.162109	5827.265137
2002.628906	5752.688477
2001.093750	5710.729980
1999.558594	5857.748535
1998.023438	5753.897949
1996.488281	5775.468262
1994.953125	5722.144531
1993.417969	5800.677246
1991.880859	5734.353027
1990.343750	5759.162598
1988.806641	5891.312500
1987.269531	5759.963379
1985.732422	5812.390625
1984.193359	5803.026855
1982.656250	5753.037598
1981.117188	5761.562988
1979.578125	5789.577637
1978.039063	5848.438965
1976.500000	5866.680664
1974.958984	5698.221191
1973.417969	5818.740723
1971.878906	5807.768066
1970.337891	5827.625000
1968.796875	5831.252930
1967.253906	5747.307129
1965.712891	5859.581543
1964.169922	5761.076172
1962.626953	5840.886230
1961.083984	5899.598145
1959.541016	5841.645996
1957.998047	5803.154785
1956.455078	5701.526855
1954.910156	5829.832520
1953.365234	5752.520996
1951.820313	5901.798828
1950.275391	5962.027344
1948.730469	5936.499023
1947.183594	5927.153809
1945.638672	6079.500977
1944.091797	5898.775391
1942.544922	5891.060059
1940.998047	5914.048828
1939.449219	5832.019043
1937.902344	5864.701660
1936.353516	5877.992188
1934.804688	6031.737305
1933.255859	5959.436523
1931.707031	5971.084473
1930.158203	5860.103516
1928.607422	6000.816895
1927.058594	5976.966797
1925.507813	5917.653320
1923.957031	5919.624023
1922.406250	5916.758789
1920.853516	5949.345215
1919.302734	5886.864746
1917.750000	5750.316895
1916.197266	5845.723145
1914.644531	5723.731934
1913.091797	5896.369141
1911.539063	5975.589355
1909.984375	5847.211426
1908.431641	5829.887207
1906.876953	5751.453125
1905.322266	5798.476563
1903.767578	5700.789551
1902.210938	5680.295410
1900.656250	5913.713867
1899.099609	5718.058594
1897.542969	5856.598145
1895.986328	5873.024902
1894.429688	5690.347168
1892.873047	5804.724609
1891.314453	5787.447266
1889.755859	5791.037598
1888.199219	5672.701172
1886.640625	5807.835938
1885.080078	5795.383301
1883.521484	5895.163086
1881.960938	5845.829590
1880.402344	5794.914063
1878.841797	5776.064453
1877.281250	5856.540527
1875.720703	5837.685547
1874.158203	5836.451660
1872.597656	5700.744141
1871.035156	5835.585938
1869.472656	5891.959961
1867.910156	5793.123047
1866.347656	5793.498535
1864.783203	5744.298828
1863.220703	5755.875977
1861.656250	5789.827148
1860.091797	5855.727539
1858.527344	5801.761719
1856.962891	5818.108887
1855.396484	5808.894043
1853.832031	5785.311523
1852.265625	5871.896484
1850.699219	5893.002441
1849.132813	5802.391602
1847.566406	5802.761719
1845.998047	5858.961426
1844.431641	5750.872070
1842.863281	5850.108887
1841.294922	5748.442871
1839.726563	5669.132813
1838.156250	5800.192871
1836.587891	5811.712891
1835.017578	5734.031738
1833.449219	5818.813477
1831.878906	5841.466309
1830.306641	5814.764160
1828.736328	5792.847656
1827.166016	5734.344727
1825.593750	5721.998047
1824.021484	5838.481934
1822.449219	5848.379883
1820.876953	5756.528320
1819.304688	5828.426270
1817.730469	5661.930176
1816.158203	5773.536133
1814.583984	5800.908691
1813.009766	5839.385742
1811.435547	5801.634766
1809.859375	5821.045898
1808.285156	5862.667969
1806.708984	5956.634277
1805.132813	5809.426758
1803.556641	5870.057129
1801.980469	5997.262207
1800.404297	5832.699219
1798.826172	5907.550781
1797.248047	5904.718262
1795.671875	5859.108398
1794.093750	5981.428223
1792.513672	5826.542969
1790.935547	5855.396973
1789.355469	5871.573730
1787.777344	5802.276367
1786.197266	5853.270020
1784.617188	5790.333496
1783.035156	5928.302246
1781.455078	5871.701172
1779.873047	5932.122070
1778.292969	5952.999023
1776.710938	5880.624023
1775.128906	6016.846680
1773.544922	5919.212402
1771.962891	5935.335449
1770.378906	5989.348145
1768.794922	5959.666016
1767.212891	5988.395996
1765.626953	5944.523438
1764.042969	6104.194336
1762.458984	5885.225586
1760.873047	5983.335938
1759.287109	6024.643066
1757.701172	6050.168457
1756.115234	6006.336426
1754.529297	6093.307129
1752.941406	6082.566895
1751.355469	6056.080566
1749.767578	6103.616699
1748.179688	6184.194336
1746.591797	6203.349609
1745.001953	6036.797363
1743.414063	6096.883301
1741.824219	6141.212891
1740.234375	6226.414063
1738.644531	6228.242188
1737.054688	6258.366211
1735.462891	6211.462402
1733.873047	6254.147949
1732.281250	6334.520508
1730.689453	6438.419434
1729.097656	6303.573730
1727.505859	6266.128418
1725.912109	6387.242188
1724.320313	6387.459961
1722.726563	6450.440430
1721.132813	6365.932129
1719.539063	6416.342285
1717.945313	6451.050293
1716.349609	6590.781250
1714.755859	6504.746582
1713.160156	6553.516113
1711.564453	6539.594727
1709.968750	6610.265137
1708.371094	6687.169434
1706.775391	6479.074707
1705.177734	6458.917480
1703.580078	6535.804199
1701.982422	6553.196777
1700.384766	6615.950195
1698.787109	6641.138184
1697.187500	6683.516602
1695.587891	6754.018555
1693.990234	6640.044434
1692.390625	6657.390625
1690.789063	6659.104492
1689.189453	6831.086914
1687.587891	6768.729980
1685.988281	6697.030273
1684.386719	6887.627441
1682.785156	6998.543457
1681.181641	7082.884277
1679.580078	7139.106445
1677.976563	7187.505859
1676.373047	7240.562500
1674.769531	7327.896973
1673.166016	7469.751465
1671.562500	7401.152832
1669.957031	7535.140137
1668.353516	7541.330078
1666.748047	7569.321777
1665.142578	7770.144043
1663.537109	7629.938477
1661.929688	7801.088379
1660.324219	7872.571289
1658.716797	7961.137207
1657.109375	8203.658203
1655.501953	8281.229492
1653.894531	8397.637695
1652.285156	8571.512695
1650.677734	8616.316406
1649.068359	8752.777344
1647.458984	8828.592773
1645.849609	8944.758789
1644.240234	9211.500000
1642.628906	9327.534180
1641.019531	9449.725586
1639.408203	9820.163086
1637.796875	10007.361328
1636.185547	10036.256836
1634.572266	10390.822266
1632.960938	10847.572266
1631.347656	10781.706055
1629.734375	11169.981445
1628.121094	11505.406250
1626.507813	11977.018555
1624.894531	12180.472656
1623.279297	12812.789063
1621.664063	13139.834961
1620.048828	13353.743164
1618.433594	13709.935547
1616.818359	13846.267578
1615.203125	14087.730469
1613.585938	14194.537109
1611.968750	14210.067383
1610.351563	14281.244141
1608.734375	14273.563477
1607.117188	14035.640625
1605.498047	13712.847656
1603.878906	13654.317383
1602.261719	13277.691406
1600.640625	13205.381836
1599.021484	13069.814453
1597.402344	12974.428711
1595.781250	12837.423828
1594.162109	12879.420898
1592.541016	12654.581055
1590.919922	12627.208008
1589.296875	12313.100586
1587.675781	12230.323242
1586.052734	12104.433594
1584.429688	11984.758789
1582.806641	11900.561523
1581.183594	11958.079102
1579.560547	11747.668945
1577.935547	11822.125977
1576.312500	11854.996094
1574.687500	11655.510742
1573.062500	11625.329102
1571.435547	11724.352539
1569.810547	11660.337891
1568.183594	11499.495117
1566.558594	11292.609375
1564.931641	11202.601563
1563.304688	11083.439453
1561.675781	11039.593750
1560.048828	10928.195313
1558.419922	10743.143555
1556.791016	10834.482422
1555.162109	10858.252930
1553.533203	10866.667969
1551.904297	10741.614258
1550.273438	10700.968750
1548.642578	10691.008789
1547.011719	10639.659180
1545.380859	10536.215820
1543.750000	10593.721680
1542.119141	10317.203125
1540.486328	10385.453125
1538.853516	10397.007813
1537.220703	10382.529297
1535.587891	10288.454102
1533.955078	10264.819336
1532.320313	10259.555664
1530.685547	10242.055664
1529.052734	10438.688477
1527.416016	10373.751953
1525.781250	10487.713867
1524.146484	10445.720703
1522.509766	10276.906250
1520.873047	10325.116211
1519.236328	10266.379883
1517.599609	10316.096680
1515.962891	10350.523438
1514.324219	10416.991211
1512.687500	10231.607422
1511.048828	10339.268555
1509.410156	10652.831055
1507.771484	10542.249023
1506.130859	10546.079102
1504.492188	10682.542969
1502.851563	10927.167969
1501.210938	11028.439453
1499.570313	11519.700195
1497.927734	12004.656250
1496.287109	12352.338867
1494.644531	12856.697266
1493.001953	13274.069336
1491.359375	13735.395508
1489.716797	14176.741211
1488.074219	14342.544922
1486.429688	14601.053711
1484.785156	14596.382813
1483.140625	14346.946289
1481.496094	14048.978516
1479.851563	14067.220703
1478.207031	13658.530273
1476.560547	13473.303711
1474.914063	13279.043945
1473.267578	12920.889648
1471.621094	12757.190430
1469.972656	12633.020508
1468.326172	12338.961914
1466.677734	12025.308594
1465.029297	11807.339844
1463.380859	11331.685547
1461.732422	11218.564453
1460.082031	10741.724609
1458.431641	10713.639648
1456.783203	10756.771484
1455.132813	10586.310547
1453.480469	10562.816406
1451.830078	10507.537109
1450.177734	10520.398438
1448.527344	10568.061523
1446.875000	10258.618164
1445.220703	10008.305664
1443.568359	9850.357422
1441.916016	9851.245117
1440.261719	9549.781250
1438.607422	9212.171875
1436.953125	9193.550781
1435.298828	8868.250000
1433.642578	8872.367188
1431.988281	8683.186523
1430.332031	8660.164063
1428.675781	8699.039063
1427.019531	8724.314453
1425.361328	8479.500977
1423.705078	8669.235352
1422.046875	8519.551758
1420.388672	8694.115234
1418.730469	8776.644531
1417.072266	8908.874023
1415.412109	9025.976563
1413.753906	9085.779297
1412.093750	8964.813477
1410.433594	8866.488281
1408.773438	8930.800781
1407.111328	8883.700195
1405.451172	8955.503906
1403.789063	8995.680664
1402.126953	9129.100586
1400.464844	9065.451172
1398.802734	9069.489258
1397.138672	9061.499023
1395.474609	8991.892578
1393.812500	8862.211914
1392.146484	8782.161133
1390.482422	8783.249023
1388.818359	8509.542969
1387.152344	8485.166016
1385.486328	8475.808594
1383.820313	8379.418945
1382.154297	8430.098633
1380.488281	8464.255859
1378.820313	8628.865234
1377.154297	8700.444336
1375.486328	8691.047852
1373.818359	8743.098633
1372.148438	8657.280273
1370.480469	8734.779297
1368.810547	8644.505859
1367.140625	8518.335938
1365.470703	8709.584961
1363.800781	8890.272461
1362.130859	8635.441406
1360.458984	8877.402344
1358.787109	8785.714844
1357.115234	8916.877930
1355.443359	8847.646484
1353.771484	8929.410156
1352.097656	8927.452148
1350.423828	9039.041992
1348.751953	9159.544922
1347.076172	9250.125000
1345.402344	9563.133789
1343.728516	9746.134766
1342.052734	9829.061523
1340.376953	10201.417969
1338.701172	10355.811523
1337.025391	10730.869141
1335.347656	11050.588867
1333.671875	11227.053711
1331.994141	11187.323242
1330.316406	11196.784180
1328.638672	11383.524414
1326.960938	11312.504883
1325.281250	11323.416992
1323.601563	11304.547852
1321.921875	11172.560547
1320.242188	10973.663086
1318.562500	10837.340820
1316.880859	10482.416016
1315.201172	10202.003906
1313.519531	9955.913086
1311.837891	9732.226563
1310.154297	9688.466797
1308.472656	9539.229492
1306.789063	9768.868164
1305.105469	9471.156250
1303.421875	9641.311523
1301.738281	9560.501953
1300.054688	9487.147461
1298.369141	9495.439453
1296.683594	9570.487305
1294.998047	9777.508789
1293.312500	9925.121094
1291.626953	10216.478516
1289.939453	10624.803711
1288.253906	10987.007813
1286.566406	11417.204102
1284.878906	11456.153320
1283.189453	11381.050781
1281.501953	10894.370117
1279.812500	10539.649414
1278.123047	10192.483398
1276.433594	9709.345703
1274.744141	9353.639648
1273.052734	9144.509766
1271.363281	9092.208984
1269.671875	8989.666992
1267.980469	8811.791016
1266.289063	8665.025391
1264.595703	8744.356445
1262.904297	8724.691406
1261.210938	9003.323242
1259.517578	9218.347656
1257.824219	9651.727539
1256.128906	9991.945313
1254.435547	10343.813477
1252.740234	10205.810547
1251.044922	9974.960938
1249.349609	9530.426758
1247.652344	9143.578125
1245.957031	8919.010742
1244.259766	8647.393555
1242.562500	8314.027344
1240.865234	8128.082520
1239.167969	8039.399902
1237.468750	7937.507324
1235.769531	7825.356445
1234.072266	7744.155273
1232.371094	7814.513184
1230.671875	7880.426758
1228.972656	8097.766602
1227.271484	8076.848633
1225.570313	8067.697754
1223.869141	8076.183105
1222.167969	7839.318359
1220.464844	7709.781738
1218.763672	7608.203125
1217.060547	7610.908203
1215.357422	7538.751953
1213.654297	7394.720215
1211.949219	7619.011230
1210.246094	7739.055664
1208.541016	7885.442871
1206.835938	8137.329102
1205.130859	8501.972656
1203.423828	8881.107422
1201.718750	9230.767578
1200.011719	9303.409180
1198.304688	9187.090820
1196.597656	9161.605469
1194.888672	8960.463867
1193.181641	8523.778320
1191.472656	8232.147461
1189.763672	8013.791992
1188.054688	7779.444824
1186.343750	7486.712402
1184.634766	7163.409668
1182.923828	7153.032715
1181.212891	7014.067871
1179.501953	6935.063477
1177.791016	6762.614746
1176.078125	6629.670410
1174.365234	6628.180664
1172.652344	6457.374512
1170.939453	6498.242676
1169.226563	6358.179199
1167.511719	6349.456055
1165.798828	6369.902344
1164.083984	6377.216797
1162.369141	6352.458984
1160.652344	6184.893555
1158.937500	6139.791016
1157.220703	6202.501465
1155.503906	6128.287109
1153.787109	5960.920898
1152.070313	6112.424316
1150.351563	5994.617676
1148.632813	6080.567383
1146.916016	5978.821777
1145.195313	5965.837891
1143.476563	6156.425293
1141.757813	6179.749023
1140.037109	6176.900391
1138.316406	6373.121582
1136.595703	6238.030762
1134.875000	6386.219238
1133.152344	6223.595703
1131.429688	6318.004395
1129.708984	6196.107910
1127.984375	6123.603516
1126.261719	6116.415039
1124.539063	6138.238281
1122.814453	6058.543457
1121.089844	5975.984375
1119.365234	5942.743652
1117.640625	5822.569824
1115.914063	5800.967773
1114.187500	5808.344238
1112.462891	5854.816406
1110.734375	5891.132324
1109.007813	5989.672852
1107.281250	6282.086426
1105.552734	6536.749512
1103.824219	6607.590820
1102.095703	6600.306641
1100.367188	6546.758301
1098.636719	6283.634766
1096.908203	6188.270508
1095.177734	6023.596680
1093.447266	6085.787109
1091.714844	5925.542480
1089.984375	5811.573730
1088.251953	5589.390625
1086.519531	5614.097168
1084.787109	5403.602051
1083.054688	5424.010742
1081.320313	5406.912109
1079.585938	5411.448730
1077.851563	5413.100098
1076.117188	5450.780762
1074.382813	5567.694336
1072.648438	5410.842285
1070.912109	5395.206543
1069.175781	5209.666016
1067.439453	5297.733398
1065.701172	5270.618164
1063.964844	5099.620605
1062.226563	5101.334473
1060.488281	5071.404297
1058.750000	4991.159180
1057.011719	4916.700195
1055.271484	4984.567871
1053.531250	4924.513672
1051.791016	4979.417480
1050.050781	4843.265625
1048.310547	5004.425781
1046.568359	4935.805176
1044.826172	4913.146484
1043.083984	4956.508301
1041.341797	5108.884766
1039.599609	5157.917480
1037.855469	5109.414551
1036.113281	5194.266113
1034.369141	5223.177246
1032.623047	5181.855957
1030.878906	5090.408203
1029.132813	5135.078125
1027.386719	5113.852539
1025.640625	5094.067871
1023.894531	5131.547363
1022.148438	5087.438477
1020.400391	5200.730469
1018.652344	5182.372070
1016.904297	5188.333008
1015.156250	5190.001465
1013.406250	5233.122070
1011.658203	5247.640137
1009.908203	5226.432129
1008.158203	5273.798340
1006.408203	5292.579590
1004.656250	5315.635742
1002.904297	5527.104004
1001.152344	5525.833008
999.400391	5474.624023
997.648438	5527.570313
995.896484	5464.974121
994.142578	5406.684082
992.388672	5384.057129
990.634766	5382.816895
988.878906	5330.283691
987.125000	5408.827637
985.369141	5339.221191
983.613281	5208.420410
981.857422	5174.479004
980.099609	5107.819336
978.343750	5196.281738
976.585938	5232.068848
974.828125	5176.817871
973.070313	5186.998047
971.310547	5134.625000
969.552734	5168.970215
967.792969	5288.552246
966.033203	5153.797852
964.273438	5176.751465
962.511719	5365.822266
960.750000	5427.043457
958.990234	5451.335449
957.226563	5447.237305
955.464844	5409.093750
953.703125	5325.583496
951.939453	5179.721680
950.175781	5092.048828
948.412109	4998.747070
946.648438	4962.166016
944.882813	4877.436035
943.117188	4811.156738
941.351563	4883.672363
939.585938	4841.487305
937.820313	4918.207520
936.052734	4965.176758
934.285156	4907.439453
932.517578	4757.796875
930.750000	4782.145508
928.982422	4803.654785
927.212891	4767.206543
925.443359	4876.314941
923.673828	4868.119629
921.904297	4816.144531
920.132813	4822.085938
918.361328	4811.083984
916.591797	4835.371094
914.818359	4858.235352
913.046875	4868.391602
911.275391	4775.584473
909.501953	4806.905762
907.728516	4869.225586
905.955078	4842.723633
904.179688	4773.960938
902.406250	4839.061523
900.630859	4895.680664
898.855469	4842.441406
897.080078	4765.294434
895.302734	4766.999023
893.525391	4695.533203
891.750000	4719.761230
889.970703	4718.661621
888.193359	4699.281738
886.416016	4734.737305
884.636719	4758.931641
882.857422	4658.056641
881.078125	4649.945801
879.296875	4613.748535
877.517578	4678.667480
875.736328	4698.633301
873.955078	4705.957520
872.173828	4760.985840
870.390625	4754.262207
868.609375	4748.944336
866.826172	4707.171387
865.042969	4523.828613
863.259766	4734.403809
861.474609	4663.236328
859.689453	4614.516113
857.904297	4571.419922
856.119141	4634.761719
854.333984	4594.479980
852.546875	4615.798340
850.761719	4652.497559
848.974609	4826.273438
847.185547	4805.563477
845.398438	4857.572266
843.609375	4899.770508
841.822266	5023.010254
840.031250	5123.834961
838.242188	5361.513672
836.453125	5441.261719
834.662109	5635.468262
832.871094	5826.791016
831.080078	5974.758789
829.289063	6128.237793
827.496094	6193.759766
825.703125	6126.757324
823.910156	6019.350098
822.117188	5797.683594
820.324219	5502.255859
818.529297	5199.999512
816.734375	5111.017578
814.939453	5020.684082
813.144531	4920.646484
811.347656	4980.740234
809.550781	4808.388184
807.755859	4726.557617
805.957031	4643.373535
804.160156	4476.784180
802.361328	4489.635254
800.564453	4476.068359
798.765625	4436.102539
796.964844	4358.640137
795.166016	4410.400391
793.365234	4298.260254
791.564453	4322.240234
789.763672	4310.117676
787.962891	4175.874512
786.160156	4217.902832
784.359375	4223.844727
782.556641	4185.405762
780.751953	4137.278809
778.949219	4136.303711
777.144531	4182.447266
775.339844	4180.075684
773.535156	4206.793457
771.730469	4258.425781
769.925781	4166.042969
768.119141	4153.986328
766.312500	4122.561035
764.505859	4190.765625
762.697266	4178.710938
760.890625	4151.449219
759.082031	4205.771973
757.273438	4261.450684
755.464844	4307.429199
753.654297	4329.898926
751.845703	4411.751953
750.035156	4349.948242
748.224609	4400.002930
746.412109	4524.568848
744.601563	4673.914551
742.789063	4969.430176
740.976563	5362.736328
739.164063	5970.976563
737.349609	6959.436523
735.537109	8235.498047
733.722656	9552.295898
731.908203	10597.067383
730.091797	10527.069336
728.277344	9622.628906
726.460938	8064.684570
724.644531	6855.698730
722.828125	5801.401367
721.009766	5180.954590
719.193359	4923.904297
717.375000	4614.722656
715.556641	4590.258789
713.736328	4487.464355
711.917969	4423.192871
710.097656	4401.538086
708.277344	4366.158691
706.457031	4343.153320
704.636719	4369.579102
702.814453	4511.278809
700.992188	4545.884277
699.169922	4435.061035
697.347656	4571.157227
695.523438	4453.523926
693.699219	4559.392090
691.875000	4680.285156
690.050781	4728.500977
688.226563	4841.076172
686.400391	4818.014160
684.574219	4690.903320
682.748047	4806.144043
680.921875	4759.839844
679.095703	4783.337402
677.267578	4883.425781
675.439453	4860.384277
673.611328	4890.676270
671.781250	4908.650879
669.953125	5018.178711
668.123047	4948.671875
666.292969	4884.661133
664.460938	4826.143066
662.630859	4728.058594
660.798828	4728.298828
658.966797	4656.211914
657.134766	4577.336914
655.302734	4554.423828
653.468750	4535.612305
651.634766	4501.812012
649.800781	4458.486328
647.966797	4449.249023
646.130859	4442.740234
644.294922	4413.079102
642.458984	4427.007324
640.623047	4396.001953
638.787109	4464.370605
636.949219	4464.667969
635.111328	4399.663574
633.273438	4338.770020
631.435547	4303.741699
629.595703	4376.126953
627.757813	4350.619629
625.917969	4429.752930
624.076172	4382.508301
622.236328	4465.669922
620.394531	4289.442871
618.552734	4242.264160
616.710938	4170.678223
614.869141	4116.765137
613.025391	4057.451660
611.183594	4098.526855
609.339844	4031.109619
607.494141	3939.323730
605.650391	3951.936523
603.804688	3838.533691
601.958984	3871.482910
600.113281	3935.564941
598.267578	3822.246338
596.419922	3845.699463
594.572266	3898.914063
592.724609	3865.511230
590.876953	3897.052490
589.027344	3933.987549
587.179688	3895.191406
585.330078	3960.494629
583.480469	3919.007080
581.628906	3900.507080
579.779297	4042.753418
577.927734	3945.908203
576.076172	4061.073242
574.222656	4070.900879
572.371094	3980.864746
570.517578	3998.801025
568.664063	3938.498047
566.810547	4033.298584
564.955078	4022.897461
563.101563	4051.587891
561.246094	3852.535156
559.390625	3865.085938
557.533203	3880.324219
555.677734	3758.207275
553.820313	3716.921875
551.962891	3796.786865
550.105469	3600.769775
548.246094	3669.862061
546.386719	3643.430420
544.527344	3709.789551
542.667969	3721.000488
540.808594	3760.429443
538.947266	3709.814697
537.085938	3835.199707
535.224609	3800.706787
533.363281	3770.258301
531.500000	3781.437256
529.638672	3749.665283
527.775391	3840.004883
525.910156	3769.333008
524.046875	3870.352539
522.181641	4187.185547
520.316406	4727.719727
518.451172	4615.358398
516.585938	4089.053711
514.718750	3739.811279
512.851563	3686.688965
510.984375	3588.071289
509.117188	3543.041260
507.250000	3432.461182
505.380859	3540.006592
503.511719	3501.707520
501.642578	3496.857178
499.771484	3580.244873
497.902344	3553.992188
496.031250	3482.318604
494.160156	3401.327393
492.287109	3435.239014
490.416016	3489.163818
488.542969	3442.938232
486.669922	3406.077393
484.796875	3450.629395
482.921875	3416.451904
481.046875	3362.284912
479.171875	3389.480469
477.296875	3413.996582
475.421875	3467.821533
473.544922	3472.320313
471.667969	3460.831299
469.791016	3495.960449
467.914063	3425.885986
466.035156	3467.662109
464.156250	3473.485352
462.277344	3473.983398
460.398438	3461.178955
458.519531	3465.669189
456.638672	3390.383057
454.757813	3355.010254
452.876953	3347.561523
450.994141	3368.016846
449.113281	3337.987305
447.230469	3386.322266
445.347656	3246.107178
443.462891	3283.821777
441.580078	3297.632080
439.695313	3242.447021
437.810547	3292.072266
435.925781	3289.957275
434.039063	3302.426025
432.152344	3234.037842
430.267578	3157.731689
428.378906	3229.838379
426.492188	3246.282227
424.603516	3261.394043
422.714844	3246.050293
420.826172	3225.419434
418.937500	3244.494385
417.046875	3250.331299
415.158203	3323.616211
413.265625	3226.295166
411.375000	3226.843994
409.484375	3314.618896
407.591797	3155.268555
405.699219	3239.055420
403.806641	3369.025391
401.912109	3333.888672
400.019531	3302.729004
