#Wave		#Intensity
2109.224609	8335.996094
2107.712891	8415.386719
2106.201172	8406.952148
2104.687500	8228.236328
2103.175781	8375.218750
2101.662109	8241.205078
2100.150391	8272.468750
2098.636719	8283.896484
2097.123047	8323.394531
2095.607422	8227.484375
2094.093750	8153.075684
2092.578125	8313.055664
2091.064453	8250.210938
2089.548828	8218.737305
2088.033203	8363.755859
2086.517578	8386.687500
2085.000000	8307.395508
2083.484375	8350.108398
2081.966797	8203.293945
2080.449219	8216.355469
2078.931641	8372.717773
2077.414063	8296.807617
2075.894531	8351.002930
2074.376953	8252.083984
2072.857422	8368.805664
2071.337891	8381.815430
2069.818359	8411.269531
2068.298828	8338.738281
2066.777344	8313.925781
2065.257813	8356.527344
2063.736328	8252.826172
2062.214844	8458.110352
2060.693359	8334.715820
2059.171875	8206.446289
2057.648438	8431.315430
2056.126953	8480.405273
2054.603516	8396.508789
2053.080078	8324.136719
2051.556641	8323.993164
2050.033203	8338.613281
2048.507813	8317.144531
2046.984375	8444.905273
2045.458984	8359.485352
2043.933594	8211.816406
2042.408203	8229.721680
2040.882813	8354.115234
2039.355469	8424.400391
2037.830078	8398.032227
2036.302734	8319.280273
2034.775391	8296.219727
2033.248047	8296.082031
2031.718750	8286.126953
2030.191406	8320.345703
2028.662109	8235.152344
2027.134766	8392.008789
2025.605469	8378.771484
2024.076172	8269.102539
2022.544922	8215.041992
2021.015625	8481.236328
2019.484375	8414.085938
2017.955078	8314.300781
2016.423828	8341.916016
2014.892578	8408.698242
2013.359375	8246.958984
2011.828125	8449.166992
2010.294922	8404.948242
2008.761719	8417.834961
2007.230469	8386.687500
2005.695313	8303.381836
2004.162109	8427.122070
2002.628906	8371.546875
2001.093750	8413.754883
1999.558594	8330.513672
1998.023438	8351.539063
1996.488281	8434.430664
1994.953125	8269.841797
1993.417969	8373.873047
1991.880859	8375.344727
1990.343750	8393.083984
1988.806641	8267.681641
1987.269531	8451.307617
1985.732422	8356.835938
1984.193359	8392.444336
1982.656250	8330.528320
1981.117188	8221.519531
1979.578125	8348.103516
1978.039063	8287.860352
1976.500000	8454.970703
1974.958984	8462.913086
1973.417969	8470.853516
1971.878906	8420.371094
1970.337891	8246.608398
1968.796875	8434.635742
1967.253906	8387.436523
1965.712891	8526.712891
1964.169922	8385.494141
1962.626953	8484.195313
1961.083984	8420.821289
1959.541016	8368.814453
1957.998047	8405.909180
1956.455078	8315.063477
1954.910156	8465.480469
1953.365234	8436.167969
1951.820313	8397.157227
1950.275391	8516.719727
1948.730469	8552.117188
1947.183594	8437.097656
1945.638672	8467.645508
1944.091797	8475.548828
1942.544922	8567.492188
1940.998047	8467.108398
1939.449219	8374.843750
1937.902344	8550.738281
1936.353516	8537.622070
1934.804688	8592.319336
1933.255859	8521.090820
1931.707031	8608.043945
1930.158203	8498.118164
1928.607422	8436.632813
1927.058594	8529.999023
1925.507813	8478.207031
1923.957031	8429.660156
1922.406250	8510.075195
1920.853516	8382.583008
1919.302734	8469.416992
1917.750000	8432.187500
1916.197266	8467.441406
1914.644531	8484.969727
1913.091797	8619.999023
1911.539063	8476.549805
1909.984375	8494.064453
1908.431641	8431.136719
1906.876953	8484.036133
1905.322266	8575.505859
1903.767578	8496.523438
1902.210938	8488.296875
1900.656250	8444.719727
1899.099609	8475.066406
1897.542969	8492.548828
1895.986328	8501.995117
1894.429688	8416.704102
1892.873047	8308.974609
1891.314453	8482.157227
1889.755859	8429.016602
1888.199219	8489.800781
1886.640625	8470.362305
1885.080078	8406.031250
1883.521484	8503.656250
1881.960938	8420.110352
1880.402344	8533.715820
1878.841797	8511.083008
1877.281250	8440.402344
1875.720703	8472.250977
1874.158203	8465.657227
1872.597656	8475.074219
1871.035156	8388.454102
1869.472656	8532.300781
1867.910156	8407.307617
1866.347656	8426.325195
1864.783203	8446.933594
1863.220703	8589.045898
1861.656250	8480.130859
1860.091797	8539.070313
1858.527344	8444.591797
1856.962891	8485.940430
1855.396484	8525.673828
1853.832031	8554.212891
1852.265625	8461.406250
1850.699219	8574.541992
1849.132813	8599.859375
1847.566406	8671.435547
1845.998047	8468.615234
1844.431641	8465.232422
1842.863281	8571.868164
1841.294922	8531.798828
1839.726563	8627.218750
1838.156250	8521.822266
1836.587891	8486.566406
1835.017578	8593.083984
1833.449219	8454.318359
1831.878906	8576.717773
1830.306641	8589.232422
1828.736328	8655.851563
1827.166016	8619.018555
1825.593750	8628.333984
1824.021484	8589.932617
1822.449219	8629.460938
1820.876953	8638.766602
1819.304688	8698.930664
1817.730469	8644.653320
1816.158203	8695.256836
1814.583984	8704.540039
1813.009766	8675.704102
1811.435547	8445.236328
1809.859375	8640.292969
1808.285156	8651.165039
1806.708984	8668.378906
1805.132813	8591.987305
1803.556641	8683.750977
1801.980469	8664.473633
1800.404297	8745.084961
1798.826172	8713.122070
1797.248047	8766.748047
1795.671875	8814.012695
1794.093750	8685.426758
1792.513672	8670.921875
1790.935547	8737.176758
1789.355469	8842.979492
1787.777344	8852.191406
1786.197266	8889.880859
1784.617188	8975.016602
1783.035156	8924.087891
1781.455078	8945.923828
1779.873047	8855.495117
1778.292969	8932.660156
1776.710938	8763.251953
1775.128906	8938.367188
1773.544922	8896.985352
1771.962891	8861.938477
1770.378906	8850.592773
1768.794922	8963.968750
1767.212891	8873.685547
1765.626953	9005.945313
1764.042969	9054.529297
1762.458984	8975.324219
1760.873047	9088.551758
1759.287109	9102.398438
1757.701172	9236.043945
1756.115234	9158.441406
1754.529297	9106.083008
1752.941406	9171.899414
1751.355469	9129.009766
1749.767578	9284.551758
1748.179688	9444.750977
1746.591797	9389.236328
1745.001953	9373.087891
1743.414063	9479.669922
1741.824219	9468.227539
1740.234375	9524.416016
1738.644531	9542.842773
1737.054688	9503.095703
1735.462891	9765.135742
1733.873047	9659.358398
1732.281250	9778.287109
1730.689453	9890.881836
1729.097656	9844.818359
1727.505859	9701.430664
1725.912109	10007.044922
1724.320313	9965.693359
1722.726563	10064.004883
1721.132813	10218.749023
1719.539063	10320.100586
1717.945313	10256.761719
1716.349609	10353.359375
1714.755859	10515.745117
1713.160156	10358.378906
1711.564453	10354.619141
1709.968750	10390.020508
1708.371094	10585.147461
1706.775391	10603.260742
1705.177734	10558.749023
1703.580078	10597.205078
1701.982422	10690.411133
1700.384766	10692.839844
1698.787109	10640.523438
1697.187500	10882.216797
1695.587891	10978.407227
1693.990234	11154.274414
1692.390625	10929.997070
1690.789063	11107.361328
1689.189453	11244.035156
1687.587891	11166.686523
1685.988281	11437.572266
1684.386719	11561.597656
1682.785156	11517.004883
1681.181641	11701.817383
1679.580078	11948.955078
1677.976563	12130.475586
1676.373047	12071.762695
1674.769531	12119.093750
1673.166016	12429.840820
1671.562500	12625.128906
1669.957031	12664.520508
1668.353516	13013.896484
1666.748047	13160.652344
1665.142578	13466.173828
1663.537109	13770.006836
1661.929688	13956.974609
1660.324219	14083.171875
1658.716797	14416.239258
1657.109375	14630.946289
1655.501953	14941.982422
1653.894531	15299.529297
1652.285156	15562.098633
1650.677734	15850.976563
1649.068359	16074.468750
1647.458984	16384.863281
1645.849609	17008.865234
1644.240234	17444.705078
1642.628906	17930.041016
1641.019531	18275.472656
1639.408203	18473.328125
1637.796875	18630.759766
1636.185547	18848.619141
1634.572266	19207.513672
1632.960938	19634.476563
1631.347656	19944.992188
1629.734375	20224.376953
1628.121094	20626.054688
1626.507813	21058.546875
1624.894531	21507.888672
1623.279297	22018.980469
1621.664063	22179.953125
1620.048828	22823.802734
1618.433594	23699.509766
1616.818359	24166.371094
1615.203125	24557.232422
1613.585938	25097.945313
1611.968750	25182.281250
1610.351563	25283.583984
1608.734375	25333.835938
1607.117188	25195.542969
1605.498047	25404.917969
1603.878906	25549.330078
1602.261719	26017.974609
1600.640625	26208.507813
1599.021484	26460.701172
1597.402344	26549.197266
1595.781250	26935.445313
1594.162109	27034.595703
1592.541016	26464.345703
1590.919922	26722.373047
1589.296875	26436.089844
1587.675781	26136.054688
1586.052734	26062.671875
1584.429688	26033.996094
1582.806641	26342.662109
1581.183594	26397.093750
1579.560547	26309.851563
1577.935547	26565.917969
1576.312500	26500.218750
1574.687500	27177.728516
1573.062500	27262.681641
1571.435547	27773.628906
1569.810547	27870.714844
1568.183594	28163.001953
1566.558594	27904.904297
1564.931641	27208.951172
1563.304688	26889.708984
1561.675781	26605.929688
1560.048828	26385.232422
1558.419922	26433.324219
1556.791016	26561.214844
1555.162109	26890.099609
1553.533203	27116.035156
1551.904297	27168.521484
1550.273438	27515.462891
1548.642578	27432.896484
1547.011719	27603.322266
1545.380859	27428.800781
1543.750000	27471.958984
1542.119141	27073.849609
1540.486328	27100.210938
1538.853516	26541.544922
1537.220703	25808.568359
1535.587891	25689.753906
1533.955078	25577.107422
1532.320313	25156.951172
1530.685547	25052.113281
1529.052734	24523.652344
1527.416016	24746.230469
1525.781250	24363.296875
1524.146484	23891.873047
1522.509766	23487.888672
1520.873047	22951.154297
1519.236328	22718.623047
1517.599609	22616.000000
1515.962891	22643.201172
1514.324219	22899.367188
1512.687500	22929.544922
1511.048828	23205.373047
1509.410156	23366.664063
1507.771484	23527.882813
1506.130859	23557.890625
1504.492188	23356.152344
1502.851563	23425.810547
1501.210938	23123.607422
1499.570313	22743.828125
1497.927734	22501.304688
1496.287109	22082.224609
1494.644531	21646.574219
1493.001953	21103.029297
1491.359375	20824.533203
1489.716797	20877.863281
1488.074219	20426.107422
1486.429688	20406.492188
1484.785156	20427.941406
1483.140625	20361.201172
1481.496094	20451.044922
1479.851563	20498.296875
1478.207031	20472.601563
1476.560547	20188.689453
1474.914063	20041.576172
1473.267578	19773.060547
1471.621094	20272.759766
1469.972656	20099.919922
1468.326172	19889.216797
1466.677734	20329.400391
1465.029297	20226.419922
1463.380859	20050.699219
1461.732422	20304.085938
1460.082031	20473.998047
1458.431641	20493.812500
1456.783203	20527.253906
1455.132813	20395.574219
1453.480469	20360.871094
1451.830078	19673.623047
1450.177734	19381.753906
1448.527344	19310.964844
1446.875000	18807.466797
1445.220703	19012.150391
1443.568359	18982.316406
1441.916016	19124.873047
1440.261719	19034.556641
1438.607422	18989.619141
1436.953125	18802.656250
1435.298828	18460.162109
1433.642578	18225.056641
1431.988281	17906.996094
1430.332031	17795.912109
1428.675781	17704.500000
1427.019531	17306.769531
1425.361328	16977.107422
1423.705078	17124.265625
1422.046875	16815.896484
1420.388672	17199.751953
1418.730469	17186.966797
1417.072266	17009.906250
1415.412109	16911.275391
1413.753906	16994.972656
1412.093750	17033.447266
1410.433594	16937.882813
1408.773438	16895.052734
1407.111328	17093.070313
1405.451172	16962.937500
1403.789063	17336.882813
1402.126953	17205.248047
1400.464844	17087.203125
1398.802734	16991.759766
1397.138672	16989.558594
1395.474609	16975.333984
1393.812500	16777.798828
1392.146484	17043.041016
1390.482422	16950.708984
1388.818359	16774.326172
1387.152344	17036.388672
1385.486328	17128.728516
1383.820313	17069.464844
1382.154297	16467.123047
1380.488281	16408.027344
1378.820313	16497.417969
1377.154297	16469.822266
1375.486328	16526.181641
1373.818359	16687.417969
1372.148438	16772.169922
1370.480469	16755.017578
1368.810547	16600.087891
1367.140625	16840.519531
1365.470703	16916.175781
1363.800781	16813.689453
1362.130859	16645.408203
1360.458984	16691.130859
1358.787109	16647.089844
1357.115234	16634.470703
1355.443359	16674.179688
1353.771484	16703.408203
1352.097656	16908.958984
1350.423828	17257.847656
1348.751953	17027.013672
1347.076172	17365.265625
1345.402344	17688.437500
1343.728516	17898.017578
1342.052734	18141.828125
1340.376953	18469.087891
1338.701172	18394.916016
1337.025391	18856.201172
1335.347656	19651.291016
1333.671875	20198.558594
1331.994141	21049.636719
1330.316406	21550.158203
1328.638672	21152.111328
1326.960938	20346.123047
1325.281250	19661.109375
1323.601563	19242.890625
1321.921875	19010.916016
1320.242188	19006.730469
1318.562500	18709.441406
1316.880859	18369.142578
1315.201172	18613.453125
1313.519531	18665.849609
1311.837891	18727.140625
1310.154297	18379.701172
1308.472656	18498.972656
1306.789063	18419.128906
1305.105469	17982.871094
1303.421875	17796.259766
1301.738281	17459.792969
1300.054688	17349.072266
1298.369141	17143.431641
1296.683594	17043.210938
1294.998047	16947.484375
1293.312500	16513.693359
1291.626953	16699.814453
1289.939453	16497.498047
1288.253906	16158.933594
1286.566406	16316.852539
1284.878906	16080.682617
1283.189453	16143.765625
1281.501953	16018.781250
1279.812500	16158.821289
1278.123047	16281.039063
1276.433594	16348.454102
1274.744141	16245.717773
1273.052734	16308.670898
1271.363281	15944.264648
1269.671875	16144.737305
1267.980469	15804.173828
1266.289063	15762.249023
1264.595703	15544.537109
1262.904297	15313.626953
1261.210938	15097.584961
1259.517578	14952.502930
1257.824219	14679.069336
1256.128906	14547.421875
1254.435547	14496.977539
1252.740234	14122.044922
1251.044922	13806.265625
1249.349609	13601.205078
1247.652344	13654.193359
1245.957031	13521.467773
1244.259766	13662.851563
1242.562500	13695.164063
1240.865234	13964.573242
1239.167969	13974.714844
1237.468750	13808.200195
1235.769531	14095.061523
1234.072266	14024.234375
1232.371094	14231.476563
1230.671875	14206.241211
1228.972656	14175.134766
1227.271484	14239.598633
1225.570313	14354.004883
1223.869141	14211.202148
1222.167969	14118.413086
1220.464844	13994.818359
1218.763672	13909.458008
1217.060547	13990.036133
1215.357422	13954.618164
1213.654297	13335.150391
1211.949219	13128.232422
1210.246094	12975.679688
1208.541016	12837.858398
1206.835938	12663.443359
1205.130859	12644.485352
1203.423828	12648.983398
1201.718750	12725.272461
1200.011719	12590.584961
1198.304688	12322.682617
1196.597656	12598.123047
1194.888672	12747.544922
1193.181641	12626.139648
1191.472656	12595.507813
1189.763672	12831.136719
1188.054688	12897.000000
1186.343750	13047.643555
1184.634766	13054.949219
1182.923828	13183.562500
1181.212891	13312.116211
1179.501953	13240.462891
1177.791016	13494.556641
1176.078125	13599.585938
1174.365234	13827.202148
1172.652344	13899.995117
1170.939453	14029.666016
1169.226563	14189.916016
1167.511719	14609.729492
1165.798828	14672.066406
1164.083984	14849.554688
1162.369141	14750.007813
1160.652344	14692.765625
1158.937500	14396.600586
1157.220703	14215.644531
1155.503906	13929.911133
1153.787109	13746.226563
1152.070313	13341.359375
1150.351563	13133.146484
1148.632813	12773.702148
1146.916016	12682.083984
1145.195313	12392.711914
1143.476563	12161.629883
1141.757813	11860.873047
1140.037109	11420.725586
1138.316406	11313.526367
1136.595703	11058.195313
1134.875000	10884.313477
1133.152344	10812.154297
1131.429688	10770.512695
1129.708984	10651.964844
1127.984375	10621.985352
1126.261719	10612.328125
1124.539063	10557.711914
1122.814453	10358.108398
1121.089844	10213.685547
1119.365234	9996.854492
1117.640625	9943.871094
1115.914063	10008.263672
1114.187500	9949.505859
1112.462891	10065.998047
1110.734375	9884.188477
1109.007813	9483.889648
1107.281250	9520.812500
1105.552734	9360.949219
1103.824219	9164.995117
1102.095703	9107.960938
1100.367188	9020.588867
1098.636719	9116.834961
1096.908203	8912.439453
1095.177734	8903.190430
1093.447266	8782.716797
1091.714844	8812.493164
1089.984375	8640.113281
1088.251953	8684.342773
1086.519531	8617.422852
1084.787109	8559.190430
1083.054688	8558.685547
1081.320313	8403.861328
1079.585938	8481.252930
1077.851563	8555.725586
1076.117188	8379.386719
1074.382813	8455.287109
1072.648438	8534.033203
1070.912109	8555.132813
1069.175781	8577.661133
1067.439453	8594.420898
1065.701172	8642.834961
1063.964844	8498.408203
1062.226563	8486.399414
1060.488281	8448.504883
1058.750000	8409.189453
1057.011719	8473.401367
1055.271484	8401.038086
1053.531250	8281.287109
1051.791016	8252.098633
1050.050781	8280.375977
1048.310547	8077.444336
1046.568359	8204.807617
1044.826172	8009.161133
1043.083984	8027.419434
1041.341797	7998.323730
1039.599609	8101.201172
1037.855469	8072.100586
1036.113281	8103.227539
1034.369141	8130.039063
1032.623047	8141.074219
1030.878906	8225.171875
1029.132813	8240.475586
1027.386719	8192.760742
1025.640625	8385.596680
1023.894531	8299.221680
1022.148438	8207.161133
1020.400391	8268.231445
1018.652344	8322.120117
1016.904297	8291.608398
1015.156250	8288.275391
1013.406250	8250.636719
1011.658203	8210.156250
1009.908203	8138.260742
1008.158203	8082.109863
1006.408203	8043.121582
1004.656250	8081.250977
1002.904297	7999.455566
1001.152344	8023.304199
999.400391	8105.639648
997.648438	8149.421875
995.896484	8120.449707
994.142578	8281.123047
992.388672	7915.718262
990.634766	8117.692871
988.878906	8064.529297
987.125000	8205.122070
985.369141	8141.991699
983.613281	8121.604980
981.857422	8190.908691
980.099609	8087.973633
978.343750	8144.445801
976.585938	8088.510742
974.828125	8358.285156
973.070313	8344.981445
971.310547	8348.741211
969.552734	8328.337891
967.792969	8244.002930
966.033203	8216.529297
964.273438	8250.136719
962.511719	8475.415039
960.750000	8537.336914
958.990234	8582.199219
957.226563	8506.430664
955.464844	8425.022461
953.703125	8312.448242
951.939453	8127.611328
950.175781	7954.200195
948.412109	7821.969238
946.648438	7678.462891
944.882813	7631.353027
943.117188	7802.373535
941.351563	7702.864258
939.585938	7660.025879
937.820313	7590.315430
936.052734	7643.740723
934.285156	7623.577637
932.517578	7607.666504
930.750000	7523.890137
928.982422	7677.648438
927.212891	7533.119141
925.443359	7575.173828
923.673828	7533.860352
921.904297	7420.534668
920.132813	7538.833984
918.361328	7626.020020
916.591797	7676.469238
914.818359	7516.647949
913.046875	7529.007813
911.275391	7585.083984
909.501953	7522.687500
907.728516	7518.118164
905.955078	7606.571289
904.179688	7494.893555
902.406250	7481.879395
900.630859	7419.575684
898.855469	7496.701660
897.080078	7337.286133
895.302734	7459.432129
893.525391	7511.164551
891.750000	7485.499023
889.970703	7514.696777
888.193359	7379.363281
886.416016	7329.845703
884.636719	7249.429688
882.857422	7152.189453
881.078125	7022.682617
879.296875	7047.729492
877.517578	6869.160156
875.736328	6995.306152
873.955078	6871.567871
872.173828	6905.042969
870.390625	7026.881348
868.609375	6838.704102
866.826172	6935.260254
865.042969	6857.938965
863.259766	6880.162109
861.474609	6797.283691
859.689453	6853.130371
857.904297	7019.594727
856.119141	7016.552734
854.333984	6842.723145
852.546875	6953.088379
850.761719	6884.297363
848.974609	6891.079102
847.185547	6883.871582
845.398438	6967.553711
843.609375	7045.604492
841.822266	7041.159180
840.031250	7061.865723
838.242188	7078.371582
836.453125	6935.653320
834.662109	6989.879395
832.871094	6986.844727
831.080078	6925.193359
829.289063	6973.800781
827.496094	7026.569336
825.703125	7171.360352
823.910156	6931.246094
822.117188	6972.833496
820.324219	6954.472168
818.529297	6959.806152
816.734375	6853.694824
814.939453	6711.422363
813.144531	6950.726074
811.347656	6755.598633
809.550781	6862.565430
807.755859	6866.517578
805.957031	6736.925781
804.160156	6733.950684
802.361328	6740.709961
800.564453	6775.266602
798.765625	6840.380859
796.964844	6852.666016
795.166016	6899.671875
793.365234	6911.935547
791.564453	6915.862305
789.763672	6865.649902
787.962891	6839.052734
786.160156	6855.479004
784.359375	6601.404785
782.556641	6641.453613
780.751953	6523.423828
778.949219	6591.194336
777.144531	6548.065918
775.339844	6607.484375
773.535156	6518.660156
771.730469	6530.971191
769.925781	6590.350098
768.119141	6653.853027
766.312500	6498.672852
764.505859	6480.536621
762.697266	6550.934570
760.890625	6525.879395
759.082031	6608.675293
757.273438	6497.917480
755.464844	6530.930664
753.654297	6492.085449
751.845703	6461.544922
750.035156	6647.825684
748.224609	6722.188477
746.412109	6860.008301
744.601563	6989.482422
742.789063	7443.108398
740.976563	7988.932129
739.164063	8683.426758
737.349609	9897.344727
735.537109	11243.005859
733.722656	12798.864258
731.908203	13761.584961
730.091797	13515.915039
728.277344	12395.951172
726.460938	10599.181641
724.644531	9212.043945
722.828125	8033.344727
721.009766	7350.461914
719.193359	7051.635742
717.375000	6770.827148
715.556641	6763.723633
713.736328	6667.286133
711.917969	6621.735352
710.097656	6464.930664
708.277344	6433.182129
706.457031	6408.313965
704.636719	6487.788574
702.814453	6524.679199
700.992188	6498.433105
699.169922	6536.673828
697.347656	6758.674805
695.523438	7051.870117
693.699219	7192.763672
691.875000	7175.980469
690.050781	7214.012695
688.226563	7078.053711
686.400391	7035.287109
684.574219	6984.324707
682.748047	6925.172852
680.921875	6859.206055
679.095703	6913.673828
677.267578	6876.465820
675.439453	6874.831543
673.611328	6822.609375
671.781250	6846.959473
669.953125	6880.863770
668.123047	6709.808594
666.292969	6896.715332
664.460938	6938.775391
662.630859	7083.213379
660.798828	7066.513672
658.966797	7081.208496
657.134766	7072.702148
655.302734	7199.235840
653.468750	7122.520508
651.634766	7123.551758
649.800781	7256.796875
647.966797	7286.411621
646.130859	7234.268555
644.294922	7258.425293
642.458984	7064.691895
640.623047	6950.012207
638.787109	7019.133789
636.949219	6933.094238
635.111328	6960.011719
633.273438	6875.386719
631.435547	6898.224609
629.595703	6892.502441
627.757813	6999.590820
625.917969	6957.158203
624.076172	6982.669434
622.236328	6968.781250
620.394531	6956.256836
618.552734	6817.488281
616.710938	6910.866699
614.869141	6715.185059
613.025391	6662.034180
611.183594	6722.831543
609.339844	6681.906738
607.494141	6561.020996
605.650391	6582.495117
603.804688	6521.307129
601.958984	6282.693359
600.113281	6403.080078
598.267578	6316.251953
596.419922	6266.012695
594.572266	6367.369141
592.724609	6280.610352
590.876953	6319.690918
589.027344	6243.802246
587.179688	6117.924805
585.330078	6163.772949
583.480469	6144.732910
581.628906	6143.265137
579.779297	6221.490723
577.927734	6149.783203
576.076172	6175.315430
574.222656	6192.736328
572.371094	6270.874023
570.517578	6129.066406
568.664063	6286.760254
566.810547	6317.620605
564.955078	6286.451172
563.101563	6260.687500
561.246094	6373.729004
559.390625	6389.718750
557.533203	6355.865723
555.677734	6233.157227
553.820313	6024.348145
551.962891	5827.751465
550.105469	5815.593262
548.246094	5811.511719
546.386719	5849.124512
544.527344	5870.583984
542.667969	5815.407715
540.808594	5816.704102
538.947266	5812.625488
537.085938	5917.357422
535.224609	5926.685547
533.363281	5879.615723
531.500000	5858.073242
529.638672	5913.037109
527.775391	5951.873535
525.910156	6118.123535
524.046875	6226.627441
522.181641	6340.442383
520.316406	6523.904785
518.451172	6466.058105
516.585938	6075.969238
514.718750	5961.998535
512.851563	5894.952637
510.984375	5834.632324
509.117188	5904.176270
507.250000	5768.943359
505.380859	5811.711426
503.511719	5833.058105
501.642578	5731.368652
499.771484	5760.745117
497.902344	5803.472656
496.031250	5792.728516
494.160156	5751.262695
492.287109	5715.158691
490.416016	5723.136719
488.542969	5588.266602
486.669922	5740.415039
484.796875	5823.103516
482.921875	5885.742188
481.046875	5744.292480
479.171875	5680.246582
477.296875	5624.229492
475.421875	5502.934082
473.544922	5440.323730
471.667969	5429.695313
469.791016	5389.772461
467.914063	5425.762207
466.035156	5457.740723
464.156250	5405.860840
462.277344	5493.710449
460.398438	5469.780273
458.519531	5413.944336
456.638672	5379.407715
454.757813	5460.531738
452.876953	5437.959961
450.994141	5426.027832
449.113281	5395.505371
447.230469	5420.771484
445.347656	5430.093262
443.462891	5430.119141
441.580078	5402.277832
439.695313	5285.560059
437.810547	5338.674805
435.925781	5271.092285
434.039063	5285.737793
432.152344	5353.393066
430.267578	5368.011230
428.378906	5326.980957
426.492188	5431.662109
424.603516	5360.180176
422.714844	5373.457520
420.826172	5426.434082
418.937500	5460.859863
417.046875	5295.513184
415.158203	5304.824707
413.265625	5285.041992
411.375000	5308.892090
409.484375	5373.700684
407.591797	5550.788574
405.699219	5430.569336
403.806641	5511.149414
401.912109	5512.469727
400.019531	5602.230957
