#Wave		#Intensity
2109.007813	3283.030029
2107.496094	3319.416260
2105.984375	3338.541016
2104.470703	3403.947510
2102.958984	3396.600342
2101.445313	3412.391113
2099.933594	3302.613281
2098.419922	3283.730469
2096.906250	3332.563965
2095.390625	3318.635986
2093.876953	3385.598633
2092.361328	3237.987061
2090.845703	3351.138184
2089.332031	3332.269531
2087.814453	3343.095947
2086.298828	3268.173584
2084.783203	3363.086426
2083.265625	3298.081543
2081.748047	3310.553955
2080.230469	3332.906250
2078.712891	3363.484619
2077.195313	3333.118164
2075.677734	3332.401123
2074.158203	3330.038086
2072.638672	3301.344238
2071.119141	3333.541992
2069.599609	3324.600098
2068.080078	3325.530273
2066.560547	3313.305420
2065.039063	3212.311523
2063.517578	3262.573730
2061.996094	3299.667969
2060.474609	3284.173340
2058.953125	3263.757813
2057.429688	3336.956543
2055.908203	3259.073486
2054.384766	3199.280518
2052.861328	3269.163574
2051.337891	3234.006104
2049.814453	3320.256104
2048.289063	3314.624268
2046.765625	3284.398682
2045.240234	3241.070801
2043.714844	3274.796387
2042.189453	3275.733887
2040.664063	3327.459229
2039.136719	3200.622070
2037.609375	3231.052002
2036.083984	3305.675781
2034.556641	3295.146973
2033.029297	3273.166504
2031.500000	3229.924316
2029.972656	3271.766602
2028.443359	3207.281494
2026.914063	3159.175537
2025.386719	3313.809814
2023.855469	3250.991211
2022.326172	3227.418945
2020.796875	3190.786133
2019.265625	3289.744629
2017.734375	3215.553223
2016.203125	3280.176270
2014.671875	3223.974854
2013.140625	3167.797363
2011.607422	3291.130371
2010.076172	3221.911621
2008.542969	3322.346436
2007.009766	3230.321533
2005.476563	3245.935791
2003.943359	3224.054443
2002.408203	3288.551514
2000.875000	3204.758301
1999.339844	3238.282715
1997.804688	3258.764160
1996.269531	3209.223389
1994.732422	3211.795654
1993.197266	3287.605469
1991.660156	3241.344482
1990.123047	3284.578857
1988.585938	3246.470459
1987.048828	3195.369141
1985.511719	3282.482178
1983.972656	3250.900391
1982.435547	3211.206299
1980.896484	3160.155762
1979.357422	3195.220703
1977.818359	3178.300781
1976.279297	3187.367432
1974.738281	3253.248291
1973.197266	3239.572510
1971.658203	3268.092285
1970.117188	3192.770264
1968.576172	3203.445801
1967.033203	3188.170410
1965.492188	3193.978516
1963.949219	3191.679199
1962.406250	3257.446777
1960.863281	3344.250000
1959.320313	3204.225830
1957.777344	3150.099121
1956.232422	3227.154297
1954.689453	3195.710449
1953.144531	3159.423828
1951.599609	3223.482178
1950.054688	3224.416016
1948.507813	3290.050781
1946.962891	3164.829590
1945.416016	3198.112061
1943.869141	3157.021484
1942.322266	3157.968262
1940.775391	3215.468018
1939.228516	3167.937500
1937.679688	3147.884521
1936.132813	3260.252441
1934.583984	3190.140381
1933.035156	3195.920654
1931.486328	3183.947266
1929.935547	3178.432373
1928.386719	3219.698975
1926.835938	3172.247559
1925.285156	3163.513672
1923.734375	3183.800293
1922.183594	3144.445068
1920.632813	3143.779297
1919.080078	3107.670898
1917.527344	3184.325928
1915.976563	3116.017334
1914.423828	3158.827881
1912.869141	3127.575684
1911.316406	3299.111084
1909.761719	3121.424805
1908.208984	3202.805176
1906.654297	3251.984619
1905.099609	3196.625977
1903.544922	3179.873291
1901.988281	3145.447754
1900.433594	3099.788086
1898.876953	3121.624756
1897.320313	3145.058350
1895.763672	3134.757568
1894.207031	3153.361572
1892.648438	3110.958496
1891.091797	3107.090820
1889.533203	3156.175293
1887.974609	3108.985596
1886.416016	3137.197998
1884.857422	3170.209229
1883.298828	3251.302734
1881.738281	3152.840332
1880.177734	3147.366455
1878.617188	3145.098877
1877.056641	3080.360107
1875.496094	3087.716797
1873.935547	2997.398438
1872.373047	3116.827637
1870.810547	3157.781982
1869.248047	3147.513672
1867.685547	3159.647217
1866.123047	3142.984619
1864.560547	3132.725830
1862.996094	3080.902100
1861.431641	3115.417480
1859.867188	3133.937012
1858.302734	3134.872559
1856.738281	3127.820557
1855.171875	3165.490723
1853.607422	3048.256836
1852.041016	3030.052246
1850.474609	3106.025391
1848.908203	3068.666504
1847.341797	3072.804688
1845.773438	3027.492920
1844.207031	3103.402100
1842.638672	3077.235840
1841.070313	3111.655762
1839.501953	3131.717529
1837.931641	2982.868652
1836.363281	3095.347168
1834.792969	3101.064453
1833.222656	3054.229736
1831.652344	3058.361084
1830.082031	3097.508545
1828.511719	3058.660889
1826.941406	3019.829590
1825.369141	3011.238281
1823.796875	3121.929443
1822.224609	3114.910156
1820.652344	3150.815674
1819.078125	3054.787598
1817.505859	3071.622070
1815.931641	2983.594482
1814.357422	3110.034180
1812.783203	3131.610107
1811.208984	3105.545654
1809.634766	3073.142334
1808.058594	3069.319336
1806.484375	3097.231689
1804.908203	3101.336914
1803.332031	3068.961426
1801.753906	3027.085205
1800.177734	3083.518799
1798.601563	3174.799072
1797.023438	3088.555420
1795.445313	2992.842041
1793.867188	3015.970215
1792.289063	3067.594727
1790.708984	3073.280273
1789.130859	2998.229492
1787.550781	3103.635986
1785.970703	3210.579834
1784.390625	3140.293213
1782.810547	3070.036133
1781.228516	3116.827881
1779.646484	3081.387451
1778.066406	3137.640869
1776.484375	3125.915527
1774.902344	3131.575195
1773.318359	3145.130859
1771.736328	3144.466309
1770.152344	3061.693604
1768.568359	3083.148193
1766.984375	3159.835449
1765.400391	3152.855713
1763.816406	3126.946777
1762.230469	3154.677979
1760.646484	3097.239258
1759.060547	3154.921631
1757.474609	3141.644043
1755.888672	3224.508301
1754.300781	3208.070068
1752.714844	3152.255127
1751.126953	3101.188721
1749.539063	3195.013672
1747.951172	3202.209961
1746.363281	3179.496826
1744.775391	3125.319580
1743.185547	3209.619385
1741.595703	3160.177246
1740.007813	3197.253418
1738.416016	3190.287842
1736.826172	3178.609131
1735.236328	3157.505127
1733.644531	3222.833740
1732.052734	3212.726074
1730.462891	3190.056885
1728.869141	3227.070557
1727.277344	3232.667969
1725.685547	3200.590332
1724.091797	3237.577637
1722.498047	3305.929443
1720.904297	3269.150146
1719.310547	3293.552002
1717.716797	3270.902588
1716.121094	3213.773193
1714.527344	3260.113770
1712.931641	3279.795166
1711.335938	3315.135010
1709.740234	3287.804932
1708.142578	3424.919922
1706.546875	3347.475098
1704.949219	3392.162109
1703.351563	3319.451660
1701.753906	3375.078369
1700.156250	3371.234619
1698.558594	3481.567871
1696.958984	3382.316162
1695.359375	3495.726563
1693.759766	3413.707275
1692.160156	3450.489014
1690.560547	3515.378174
1688.960938	3470.895508
1687.359375	3490.462402
1685.757813	3514.704834
1684.156250	3468.688721
1682.554688	3549.111572
1680.953125	3568.644287
1679.349609	3641.210938
1677.748047	3610.803711
1676.144531	3653.701416
1674.541016	3670.076172
1672.937500	3666.180176
1671.332031	3637.350830
1669.728516	3726.948242
1668.123047	3782.236572
1666.517578	3815.697510
1664.912109	3852.257813
1663.306641	3806.293945
1661.701172	3811.711670
1660.093750	3826.463623
1658.486328	3880.103271
1656.878906	3966.384033
1655.271484	3982.647949
1653.664063	3989.575928
1652.056641	4047.797852
1650.447266	4004.976563
1648.837891	4018.109863
1647.228516	4127.551758
1645.619141	4205.884277
1644.009766	4223.624023
1642.398438	4177.704590
1640.789063	4349.104492
1639.177734	4476.979980
1637.566406	4395.351074
1635.955078	4537.122559
1634.341797	4455.514648
1632.730469	4547.596680
1631.117188	4555.930176
1629.503906	4744.040527
1627.890625	4755.426758
1626.277344	4738.923340
1624.662109	4847.882324
1623.048828	4888.660156
1621.433594	5002.185059
1619.818359	4963.971680
1618.203125	5048.028320
1616.587891	5046.953125
1614.970703	5096.924805
1613.353516	5199.457031
1611.738281	5196.803223
1610.121094	5149.319336
1608.501953	5387.781738
1606.884766	5567.424316
1605.267578	5462.729492
1603.648438	5566.595215
1602.029297	5602.469727
1600.410156	5524.079590
1598.791016	5507.465820
1597.169922	5589.625977
1595.550781	5611.577148
1593.929688	5747.669922
1592.308594	5777.288574
1590.687500	5800.726074
1589.064453	5871.942871
1587.443359	6026.357422
1585.820313	6057.430176
1584.197266	6077.705078
1582.574219	5999.393066
1580.951172	6013.510742
1579.328125	5892.135254
1577.703125	5861.629883
1576.080078	5840.370605
1574.455078	5777.576660
1572.830078	5745.575195
1571.203125	5885.840820
1569.578125	6042.959961
1567.951172	6129.294922
1566.324219	6095.707031
1564.697266	6266.508789
1563.070313	6240.586426
1561.443359	6326.803223
1559.816406	6515.873047
1558.187500	6422.357422
1556.558594	6534.573730
1554.929688	6729.614258
1553.300781	6654.523926
1551.669922	6739.003906
1550.041016	6579.588867
1548.410156	6572.045410
1546.779297	6601.297852
1545.148438	6598.350098
1543.517578	6584.676270
1541.884766	6520.450195
1540.251953	6542.027832
1538.621094	6603.412109
1536.988281	6477.978516
1535.353516	6406.174316
1533.720703	6363.478027
1532.085938	6132.599121
1530.453125	6025.729004
1528.818359	5905.139160
1527.183594	5757.077148
1525.546875	5702.333496
1523.912109	5583.418457
1522.275391	5591.387207
1520.640625	5611.574707
1519.003906	5457.622559
1517.365234	5529.751953
1515.728516	5543.831055
1514.091797	5483.106445
1512.453125	5390.357910
1510.814453	5328.165527
1509.175781	5218.709473
1507.537109	5040.667480
1505.896484	5155.470215
1504.257813	5026.301758
1502.617188	4985.590820
1500.976563	4873.275879
1499.335938	4828.044434
1497.693359	4945.813477
1496.052734	4892.970215
1494.410156	4939.114746
1492.767578	5088.748535
1491.125000	5145.483398
1489.482422	5158.067871
1487.837891	5274.089844
1486.195313	5233.408691
1484.550781	5460.365234
1482.906250	5488.071777
1481.261719	5565.922852
1479.617188	5668.053223
1477.970703	5572.635254
1476.324219	5673.200195
1474.677734	5731.200684
1473.031250	5582.689941
1471.384766	5586.037598
1469.738281	5669.816895
1468.089844	5565.416016
1466.441406	5382.177246
1464.792969	5523.577148
1463.144531	5545.126953
1461.496094	5486.320313
1459.845703	5385.100586
1458.197266	5467.278320
1456.546875	5337.320313
1454.896484	5314.959473
1453.244141	5256.264160
1451.593750	5203.649414
1449.941406	5179.816895
1448.291016	5174.154785
1446.638672	5103.434570
1444.984375	5253.598145
1443.332031	5149.618164
1441.679688	5125.820801
1440.025391	5073.311035
1438.371094	5022.334961
1436.716797	4888.272461
1435.062500	4850.954102
1433.406250	4872.557129
1431.750000	4634.417969
1430.095703	4663.606445
1428.439453	4569.009766
1426.781250	4500.108398
1425.125000	4485.551758
1423.466797	4489.102539
1421.810547	4393.115723
1420.152344	4387.637695
1418.494141	4306.788574
1416.833984	4194.324707
1415.175781	4176.837891
1413.515625	4156.344727
1411.855469	4208.155273
1410.195313	4275.000977
1408.535156	4105.456055
1406.875000	4173.799316
1405.212891	4187.938477
1403.550781	4203.575684
1401.888672	4100.375977
1400.226563	4173.170898
1398.564453	4118.134277
1396.900391	4117.236816
1395.238281	4062.235840
1393.574219	4094.405518
1391.910156	4078.490234
1390.244141	4062.581299
1388.580078	4111.246094
1386.914063	4156.886230
1385.248047	4122.958984
1383.582031	4092.047119
1381.916016	4115.157227
1380.250000	4115.757813
1378.582031	4173.342285
1376.916016	4275.878906
1375.248047	4183.509277
1373.578125	4251.529785
1371.910156	4352.482422
1370.242188	4435.415527
1368.572266	4385.023438
1366.902344	4559.246582
1365.232422	4622.617676
1363.562500	4700.927246
1361.890625	4729.823730
1360.220703	4700.364258
1358.548828	4736.725586
1356.876953	4650.454102
1355.205078	4574.684570
1353.531250	4624.500488
1351.859375	4453.131836
1350.185547	4461.118652
1348.511719	4481.051758
1346.837891	4477.081543
1345.164063	4598.527344
1343.488281	4572.141602
1341.812500	4726.344727
1340.138672	4895.399414
1338.460938	5036.037109
1336.785156	5100.551758
1335.109375	5142.671387
1333.431641	5287.632813
1331.753906	5189.593750
1330.076172	5273.386719
1328.398438	5316.918945
1326.720703	5443.839355
1325.041016	5481.357910
1323.361328	5474.196289
1321.681641	5355.404297
1320.001953	5269.402344
1318.322266	5242.949219
1316.640625	5049.912109
1314.960938	4998.236816
1313.279297	4980.780273
1311.597656	4921.709961
1309.914063	4708.105957
1308.232422	4790.272949
1306.548828	4618.384766
1304.865234	4632.217285
1303.181641	4601.498047
1301.498047	4509.927246
1299.814453	4480.731934
1298.128906	4451.548828
1296.443359	4371.938965
1294.757813	4276.048340
1293.072266	4238.031250
1291.386719	4207.443848
1289.699219	4218.371094
1288.011719	4073.695068
1286.324219	4179.465820
1284.636719	4101.517090
1282.949219	4328.667480
1281.259766	4158.924316
1279.572266	4246.817871
1277.882813	4268.075684
1276.193359	4043.712646
1274.501953	4193.701172
1272.812500	4167.629395
1271.121094	4107.561523
1269.429688	4131.781250
1267.738281	3950.555176
1266.046875	3982.186279
1264.353516	3907.437988
1262.662109	3933.156006
1260.968750	3964.768799
1259.275391	3897.454346
1257.582031	3954.151855
1255.886719	3922.284668
1254.193359	4049.766357
1252.498047	4065.091064
1250.802734	4075.984619
1249.107422	4131.103027
1247.410156	4137.554199
1245.714844	4154.317871
1244.017578	4140.133301
1242.320313	4128.900391
1240.623047	4016.056152
1238.925781	3900.316650
1237.226563	3946.553223
1235.527344	3945.673828
1233.828125	3888.881836
1232.128906	3873.304443
1230.429688	3825.377441
1228.728516	3817.172119
1227.029297	3898.645020
1225.328125	3780.195313
1223.626953	3823.434326
1221.923828	3834.333496
1220.222656	3926.009766
1218.519531	3967.717529
1216.816406	3982.980469
1215.113281	3926.314941
1213.410156	3846.195068
1211.707031	3864.407715
1210.001953	3760.867920
1208.296875	3735.096924
1206.591797	3789.974854
1204.886719	3509.156494
1203.179688	3514.233154
1201.474609	3519.307129
1199.767578	3621.057129
1198.060547	3479.654053
1196.353516	3585.759033
1194.644531	3557.142578
1192.937500	3443.654541
1191.228516	3504.336670
1189.519531	3405.539063
1187.810547	3311.173340
1186.099609	3423.020264
1184.390625	3346.234619
1182.679688	3496.022949
1180.968750	3486.470947
1179.257813	3563.115234
1177.544922	3600.289795
1175.833984	3564.435303
1174.121094	3565.094238
1172.408203	3635.812256
1170.695313	3594.135986
1168.982422	3664.814941
1167.267578	3472.914795
1165.552734	3510.048340
1163.837891	3523.837891
1162.123047	3409.351074
1160.408203	3539.739014
1158.691406	3485.034668
1156.976563	3511.925537
1155.259766	3516.959473
1153.541016	3561.302002
1151.824219	3512.463135
1150.107422	3472.377930
1148.388672	3496.329590
1146.669922	3507.178223
1144.951172	3365.317139
1143.230469	3328.207520
1141.511719	3291.114502
1139.791016	3181.370850
1138.070313	3243.132080
1136.349609	3158.143555
1134.628906	3193.739014
1132.906250	3169.784912
1131.185547	3164.713135
1129.462891	3113.199463
1127.740234	3109.593506
1126.015625	3145.157959
1124.292969	3060.323730
1122.568359	3050.930908
1120.843750	3047.340820
1119.119141	3104.627197
1117.394531	3048.859131
1115.667969	3159.722168
1113.941406	3085.136719
1112.214844	3091.677979
1110.488281	3150.335693
1108.761719	3153.963623
1107.033203	3161.931152
1105.306641	3036.790771
1103.578125	3189.425537
1101.849609	3023.843750
1100.119141	3010.145264
1098.390625	2927.070068
1096.660156	2806.458984
1094.929688	2862.168945
1093.199219	2835.518066
1091.468750	2765.554199
1089.736328	2847.223633
1088.003906	2768.627441
1086.273438	2801.190674
1084.539063	2794.782227
1082.806641	2795.588867
1081.074219	2815.143311
1079.339844	2765.479248
1077.605469	2761.966553
1075.871094	2803.132324
1074.134766	2788.085205
1072.400391	2752.876953
1070.664063	2891.950439
1068.927734	2799.138428
1067.191406	2880.554932
1065.455078	2750.367432
1063.716797	2684.989502
1061.978516	2779.322754
1060.240234	2716.843994
1058.501953	2769.426758
1056.763672	2711.291016
1055.023438	2749.477783
1053.283203	2727.295654
1051.542969	2735.292236
1049.802734	2723.177002
1048.062500	2646.449463
1046.320313	2737.723877
1044.578125	2739.968506
1042.835938	2684.813232
1041.093750	2694.241455
1039.351563	2686.453369
1037.607422	2829.236084
1035.863281	2814.251953
1034.119141	2830.807373
1032.375000	2855.952637
1030.628906	2852.433105
1028.884766	2979.257324
1027.138672	3012.942627
1025.392578	3115.332764
1023.646484	3080.266113
1021.898438	3069.542480
1020.152344	2980.135254
1018.404297	3036.666016
1016.656250	2854.354492
1014.906250	2803.659424
1013.158203	2811.591797
1011.408203	2793.797607
1009.658203	2814.586670
1007.908203	2706.810303
1006.158203	2803.296631
1004.406250	2782.664063
1002.656250	2829.128906
1000.904297	2764.259521
999.150391	2776.464355
997.398438	2802.927734
995.646484	2749.517090
993.892578	2841.559326
992.138672	2776.760254
990.384766	2824.574707
988.628906	2792.578857
986.875000	2816.151123
985.119141	2913.767090
983.363281	2920.214600
981.607422	2808.510742
979.849609	2688.318848
978.093750	2740.343018
976.335938	2825.060303
974.578125	2636.683350
972.820313	2675.886230
971.060547	2695.169678
969.300781	2565.220459
967.542969	2666.928955
965.781250	2669.154053
964.021484	2593.267334
962.261719	2656.561768
960.500000	2714.148682
958.738281	2692.233154
956.976563	2653.301025
955.214844	2654.105957
953.451172	2591.090332
951.687500	2624.520264
949.923828	2650.846436
948.160156	2614.802002
946.396484	2580.190918
944.630859	2660.338379
942.865234	2570.498291
941.099609	2572.734619
939.333984	2566.476318
937.568359	2568.711914
935.800781	2556.796875
934.033203	2559.033447
932.265625	2510.354248
930.498047	2468.767334
928.730469	2591.180176
926.960938	2526.980225
925.191406	2581.499756
923.421875	2500.379639
921.652344	2480.026855
919.880859	2480.862793
918.109375	2463.346680
916.337891	2516.404785
914.566406	2424.104736
912.794922	2432.005371
911.021484	2428.619385
909.248047	2468.945313
907.474609	2431.718994
905.701172	2425.515869
903.927734	2382.680420
902.152344	2360.995361
900.376953	2435.089844
898.601563	2472.540527
896.826172	2491.672852
895.050781	2582.573486
893.273438	2650.918213
891.496094	2606.691650
889.718750	2497.790283
887.939453	2557.669678
886.162109	2558.479248
884.382813	2515.719727
882.603516	2425.206543
880.824219	2470.998291
879.044922	2464.803955
877.263672	2433.338135
875.482422	2435.577881
873.701172	2461.675049
871.919922	2395.152832
870.138672	2445.094482
868.355469	2415.071289
866.572266	2464.984619
864.789063	2446.184814
863.005859	2463.832764
861.220703	2495.483643
859.435547	2455.676514
857.650391	2491.515625
855.865234	2523.137207
854.080078	2480.551270
852.292969	2447.781494
850.505859	2448.607910
848.718750	2490.000977
846.931641	2370.541504
845.144531	2453.879639
843.355469	2475.671143
841.566406	2449.935059
839.777344	2533.195557
837.988281	2533.998779
836.197266	2494.300537
834.408203	2509.074707
832.617188	2473.588135
830.824219	2436.722412
829.033203	2418.012207
827.240234	2388.151123
825.449219	2380.617676
823.656250	2388.424805
821.861328	2442.229004
820.068359	2356.643555
818.273438	2395.103027
816.478516	2409.863525
814.683594	2421.831299
812.888672	2387.846436
811.091797	2345.525391
809.296875	2318.532227
807.500000	2334.683594
805.701172	2328.570557
803.904297	2347.492676
802.105469	2298.277832
800.308594	2297.737305
798.509766	2305.535156
796.708984	2261.921631
794.910156	2333.620361
793.109375	2341.403564
791.308594	2339.463867
789.507813	2336.136963
787.707031	2328.648193
785.904297	2366.947510
784.101563	2399.680420
782.298828	2321.455811
780.496094	2266.837402
778.693359	2302.342285
776.888672	2278.241211
775.083984	2204.274414
773.279297	2169.126221
771.474609	2225.391846
769.667969	2227.635986
767.861328	2204.963867
766.054688	2233.504150
764.248047	2230.209961
762.441406	2255.964111
760.632813	2256.814453
758.824219	2242.456299
757.015625	2283.392822
755.207031	2307.727295
753.398438	2218.763184
751.587891	2276.250244
749.777344	2254.999023
747.966797	2258.607910
746.154297	2382.295654
744.343750	2442.448730
742.531250	2503.952881
740.718750	2737.835205
738.906250	3001.943604
737.091797	3347.264648
735.277344	3660.721436
733.464844	4047.061279
731.648438	4249.993164
729.833984	4133.293457
728.019531	3653.126465
726.203125	3261.291992
724.386719	2848.998047
722.568359	2710.723145
720.751953	2462.459473
718.933594	2372.478516
717.115234	2322.415527
715.296875	2284.748535
713.478516	2289.704590
711.658203	2276.795410
709.839844	2192.458740
708.019531	2278.462891
706.197266	2168.077148
704.376953	2281.500732
702.554688	2239.787109
700.734375	2214.558105
698.910156	2234.609375
697.087891	2240.936279
695.265625	2332.269287
693.441406	2252.209961
691.617188	2299.641602
689.792969	2290.875000
687.966797	2273.893311
686.140625	2252.811035
684.316406	2349.486572
682.490234	2254.478760
680.662109	2299.104248
678.835938	2273.930664
677.007813	2298.011963
675.179688	2302.936035
673.351563	2296.919678
671.521484	2364.718262
669.693359	2306.760498
667.863281	2349.931641
666.033203	2399.911865
664.201172	2373.394775
662.371094	2412.423096
660.539063	2432.323486
658.707031	2381.253906
656.875000	2418.887695
655.041016	2411.492188
653.208984	2425.918457
651.375000	2479.873779
649.541016	2518.810303
647.705078	2444.626709
645.871094	2525.785156
644.035156	2548.338135
642.199219	2535.476074
640.363281	2536.233643
638.525391	2536.990479
636.689453	2473.792969
634.851563	2426.950195
633.013672	2434.532471
631.173828	2395.879150
629.335938	2346.368896
627.496094	2372.991699
625.656250	2315.357422
623.816406	2312.088623
621.974609	2304.746826
620.132813	2249.885010
618.292969	2271.068359
616.449219	2267.812500
614.607422	2229.280029
612.763672	2211.113770
610.921875	2253.984375
609.078125	2222.261719
607.232422	2187.843018
605.388672	2283.541504
603.542969	2277.576904
601.697266	2287.869873
599.851563	2368.578613
598.005859	2308.440674
596.158203	2448.664063
594.310547	2385.828613
592.462891	2448.847900
590.615234	2358.989502
588.765625	2321.913818
586.916016	2252.407959
585.066406	2301.881592
583.216797	2220.251465
581.367188	2111.639648
579.515625	2148.954590
577.664063	2157.893799
575.812500	2196.529541
573.960938	2137.966553
572.107422	2192.781250
570.253906	2220.587891
568.400391	2180.943115
566.546875	2273.463867
564.693359	2236.521240
562.837891	2351.896729
560.982422	2358.071777
559.126953	2366.937988
557.269531	2330.007813
555.414063	2272.897461
553.556641	2217.160400
551.699219	2273.156250
549.841797	2221.482178
547.982422	2234.403076
546.123047	2170.658447
544.263672	2158.038086
542.404297	2199.193604
540.544922	2195.979492
538.683594	2177.987305
536.822266	2151.943604
534.960938	2132.627197
533.099609	2094.522949
531.236328	2073.886719
529.373047	2123.044434
527.509766	2134.611328
525.646484	2206.533691
523.783203	2482.259277
521.917969	3093.031494
520.052734	3770.530762
518.187500	3112.991699
516.320313	2540.171875
514.455078	2230.154785
512.587891	2249.707520
510.720703	2170.180176
508.853516	2152.260254
506.984375	2119.629395
505.115234	2112.432617
503.246094	2134.664307
501.376953	2160.896973
499.507813	2100.220215
497.636719	2135.803955
495.765625	2171.370605
493.894531	2140.124512
492.021484	2146.289795
490.150391	2125.746582
488.277344	2073.174316
486.404297	2083.354736
484.531250	2030.817627
482.656250	1974.303467
480.781250	2012.506836
478.906250	2032.024902
477.031250	2010.209595
475.156250	2044.378418
473.279297	2043.888550
471.402344	2067.375977
469.525391	2054.894775
467.648438	2015.790894
465.769531	2067.221191
463.890625	2077.372314
462.011719	2059.578125
460.132813	2012.529053
458.251953	2026.675049
456.371094	2034.166382
454.490234	2056.275391
452.609375	2070.400146
450.728516	2052.632813
448.845703	1991.041382
446.962891	2072.895752
445.080078	2024.604980
443.197266	2101.102539
441.312500	2052.828125
439.427734	2013.863037
437.542969	2062.454834
435.658203	2077.872803
433.771484	2037.603638
431.886719	1973.496826
430.000000      1965.073364
428.111328	1973.875610
426.224609	1927.047485
424.335938	2012.652954
422.447266	1981.723267
420.558594	1975.954468
418.669922	1941.078613
416.779297	1928.707764
414.888672	1950.728516
412.998047	1914.561279
411.107422	1902.205444
409.214844	1893.820068
407.324219	1865.619751
405.431641	1871.777344
403.537109	1872.649414
401.644531	1855.036621
399.750000	1936.431763
