#Wave		#Intensity
1585.210938	9353.683594
1584.209961	9261.270508
1583.208984	9092.043945
1582.208008	9297.379883
1581.206055	9385.312500
1580.204102	9236.128906
1579.202148	9391.404297
1578.200195	9020.266602
1577.198242	9192.980469
1576.195313	9178.608398
1575.192383	9234.045898
1574.189453	8967.930664
1573.186523	9190.349609
1572.182617	9372.813477
1571.178711	9184.051758
1570.174805	9149.774414
1569.170898	9115.510742
1568.166992	9275.432617
1567.162109	9081.869141
1566.158203	9015.291992
1565.153320	8966.156250
1564.147461	9086.177734
1563.142578	9248.424805
1562.136719	9117.222656
1561.130859	9105.391602
1560.125000	9185.520508
1559.119141	9253.191406
1558.113281	9268.665039
1557.106445	9202.168945
1556.099609	9426.235352
1555.092773	9655.172852
1554.084961	9690.406250
1553.078125	9656.138672
1552.070313	9713.686523
1551.062500	9825.785156
1550.054688	9657.582031
1549.045898	9596.072266
1548.038086	9621.355469
1547.029297	9517.742188
1546.020508	9369.565430
1545.011719	9342.849609
1544.001953	9402.841797
1542.992188	9423.183594
1541.982422	9411.328125
1540.972656	9300.458008
1539.962891	9125.283203
1538.952148	9202.577148
1537.942383	9116.556641
1536.931641	9188.873047
1535.919922	9147.403320
1534.909180	9068.864258
1533.897461	9007.661133
1532.886719	9023.095703
1531.874023	8981.693359
1530.862305	8888.429688
1529.850586	9148.395508
1528.837891	9057.604492
1527.825195	9033.508789
1526.812500	9071.131836
1525.799805	8990.283203
1524.786133	9082.179688
1523.772461	9092.633789
1522.758789	9006.896484
1521.745117	9029.689453
1520.731445	8946.465820
1519.716797	9035.809570
1518.702148	9132.507813
1517.687500	9046.849609
1516.672852	9047.439453
1515.657227	9237.658203
1514.642578	9028.918945
1513.626953	9086.129883
1512.610352	9062.097656
1511.594727	9210.322266
1510.579102	9036.203125
1509.562500	9051.548828
1508.545898	9123.449219
1507.529297	9101.889648
1506.511719	9331.069336
1505.494141	9191.509766
1504.477539	9169.948242
1503.458984	9153.309570
1502.441406	9409.303711
1501.423828	9115.138672
1500.405273	9260.555664
1499.386719	9145.726563
1498.368164	9148.740234
1497.348633	9281.790039
1496.330078	9265.148438
1495.310547	9285.301758
1494.291016	9263.761719
1493.271484	9296.163086
1492.250977	9353.060547
1491.231445	9282.508789
1490.210938	9432.484375
1489.190430	9335.000000
1488.168945	9205.717773
1487.148438	9287.057617
1486.126953	9287.581055
1485.105469	9222.022461
1484.083984	9337.564453
1483.061523	9433.486328
1482.040039	9544.043945
1481.017578	9412.457031
1479.995117	9520.527344
1478.971680	9650.551758
1477.949219	9587.453125
1476.925781	9605.011719
1475.902344	9646.992188
1474.878906	9908.769531
1473.855469	10006.832031
1472.831055	9977.901367
1471.806641	10080.789063
1470.782227	10298.331055
1469.757813	10357.191406
1468.733398	10559.948242
1467.708008	10594.340820
1466.682617	10794.524414
1465.657227	11038.505859
1464.631836	11528.555664
1463.605469	11711.362305
1462.579102	11835.620117
1461.552734	12098.667969
1460.526367	12174.086914
1459.500000	12256.777344
1458.472656	12490.360352
1457.445313	12329.571289
1456.417969	12283.212891
1455.390625	12093.338867
1454.362305	11981.375977
1453.334961	11896.208984
1452.306641	11465.835938
1451.277344	11069.672852
1450.249023	11140.281250
1449.219727	10924.150391
1448.191406	10771.268555
1447.162109	10431.436523
1446.131836	10392.845703
1445.102539	10465.946289
1444.072266	10512.317383
1443.041992	10422.770508
1442.011719	10427.883789
1440.981445	10362.648438
1439.950195	10222.258789
1438.918945	10288.025391
1437.887695	10060.436523
1436.856445	10155.293945
1435.825195	10041.715820
1434.792969	9947.566406
1433.760742	9865.566406
1432.728516	9987.020508
1431.696289	9839.673828
1430.663086	9685.125000
1429.629883	9516.119141
1428.596680	9504.460938
1427.563477	9439.585938
1426.530273	9531.950195
1425.496094	9469.513672
1424.461914	9346.660156
1423.427734	9281.870117
1422.393555	9221.939453
1421.358398	9302.168945
1420.323242	9314.727539
1419.288086	9269.315430
1418.252930	9373.630859
1417.217773	9301.669922
1416.181641	9408.346680
1415.145508	9556.001953
1414.109375	9319.987305
1413.073242	9455.538086
1412.036133	9636.852539
1411.000000	9533.578125
1409.962891	9722.031250
1408.924805	9823.641602
1407.887695	9946.894531
1406.849609	10055.641602
1405.812500	10499.139648
1404.773438	10496.952148
1403.735352	10814.975586
1402.697266	11091.946289
1401.658203	11080.007813
1400.619141	11118.601563
1399.580078	11340.004883
1398.540039	11356.880859
1397.500977	11304.016602
1396.460938	11376.186523
1395.420898	11381.024414
1394.380859	11128.728516
1393.339844	10984.654297
1392.298828	11025.600586
1391.257813	10881.606445
1390.216797	10797.698242
1389.175781	10889.068359
1388.133789	11110.003906
1387.091797	11069.291016
1386.049805	11354.871094
1385.007813	11215.781250
1383.964844	11503.607422
1382.922852	11865.637695
1381.879883	12208.339844
1380.835938	12447.844727
1379.792969	12742.358398
1378.749023	12749.279297
1377.706055	13055.581055
1376.661133	13213.290039
1375.617188	13186.587891
1374.573242	13270.000977
1373.528320	13329.447266
1372.483398	13156.788086
1371.438477	13036.825195
1370.392578	12859.514648
1369.347656	12624.890625
1368.301758	12476.425781
1367.255859	12452.305664
1366.208984	12091.263672
1365.163086	11883.273438
1364.116211	11651.484375
1363.069336	11682.478516
1362.022461	11441.276367
1360.974609	11491.397461
1359.927734	11429.327148
1358.879883	11386.372070
1357.832031	11362.517578
1356.783203	11376.833984
1355.735352	11417.374023
1354.686523	11524.650391
1353.637695	11646.182617
1352.588867	11955.926758
1351.539063	12048.724609
1350.490234	12067.638672
1349.440430	12586.677734
1348.390625	12950.726563
1347.339844	13038.473633
1346.290039	13680.744141
1345.239258	14163.312500
1344.188477	14281.675781
1343.137695	14485.618164
1342.085938	15255.459961
1341.034180	15406.802734
1339.982422	15498.654297
1338.930664	15728.308594
1337.878906	16041.029297
1336.826172	16130.310547
1335.773438	16293.181641
1334.720703	16256.516602
1333.667969	16283.966797
1332.614258	16313.778320
1331.561523	15833.358398
1330.507813	15770.717773
1329.453125	15684.380859
1328.399414	15427.323242
1327.344727	15101.610352
1326.290039	14719.138672
1325.235352	14519.325195
1324.180664	14120.547852
1323.125000	13989.646484
1322.070313	13918.015625
1321.014648	13706.693359
1319.958008	13369.975586
1318.902344	13357.695313
1317.845703	13042.490234
1316.789063	13134.391602
1315.732422	12665.597656
1314.675781	12511.563477
1313.618164	12480.554688
1312.560547	12319.530273
1311.502930	12021.480469
1310.445313	11933.875977
1309.386719	11799.054688
1308.329102	11775.310547
1307.270508	11687.810547
1306.210938	11350.064453
1305.152344	11406.688477
1304.092773	10998.337891
1303.033203	11088.046875
1301.973633	11038.525391
1300.914063	10783.821289
1299.853516	10696.653320
1298.792969	10607.163086
1297.732422	10548.354492
1296.671875	10640.395508
1295.611328	10664.069336
1294.549805	10291.976563
1293.488281	10223.859375
1292.426758	10042.745117
1291.364258	10325.482422
1290.302734	9866.685547
1289.240234	9956.376953
1288.177734	10130.726563
1287.114258	10032.146484
1286.051758	9947.716797
1284.988281	10042.014648
1283.924805	10093.958984
1282.861328	10162.332031
1281.796875	10131.987305
1280.732422	10458.736328
1279.667969	10226.349609
1278.603516	10726.708008
1277.539063	10851.216797
1276.473633	10792.587891
1275.408203	10994.470703
1274.342773	11020.298828
1273.277344	11388.594727
1272.210938	11526.898438
1271.145508	11308.741211
1270.079102	11233.674805
1269.011719	11142.233398
1267.945313	10971.158203
1266.877930	11013.346680
1265.810547	10685.438477
1264.743164	10367.034180
1263.674805	10177.535156
1262.607422	10233.897461
1261.539063	9890.045898
1260.470703	9958.143555
1259.401367	9684.673828
1258.333008	9684.958008
1257.263672	9713.301758
1256.194336	9538.243164
1255.125000	9657.759766
1254.054688	9585.605469
1252.985352	9478.436523
1251.915039	9474.088867
1250.843750	9383.334961
1249.773438	9334.645508
1248.702148	9309.319336
1247.630859	9267.666992
1246.559570	9335.698242
1245.488281	9259.063477
1244.416016	9420.360352
1243.343750	9376.384766
1242.271484	9278.805664
1241.199219	9279.163086
1240.125977	9041.823242
1239.053711	9249.587891
1237.980469	9142.798828
1236.906250	9317.848633
1235.833008	9369.417969
1234.758789	9472.178711
1233.684570	9384.048828
1232.610352	9316.898438
1231.536133	9333.525391
1230.460938	9333.863281
1229.385742	9383.034180
1228.310547	9483.332031
1227.235352	9279.086914
1226.159180	9237.602539
1225.083008	9377.362305
1224.006836	9447.375000
1222.930664	9289.756836
1221.853516	9306.351563
1220.777344	9165.079102
1219.700195	9390.578125
1218.622070	9386.253906
1217.544922	9414.410156
1216.466797	9331.219727
1215.388672	9312.995117
1214.310547	9299.414063
1213.232422	9220.934570
1212.153320	9415.952148
1211.074219	9404.672852
1209.995117	9293.788086
1208.916016	9440.026367
1207.835938	9493.581055
1206.755859	9514.702148
1205.675781	9473.321289
1204.595703	9529.145508
1203.514648	9418.372070
1202.434570	9478.809570
1201.353516	9321.841797
1200.271484	9366.087891
1199.190430	9297.048828
1198.108398	9366.701172
1197.026367	9373.938477
1195.944336	9330.349609
1194.862305	9173.610352
1193.779297	9106.992188
1192.696289	8899.577148
1191.613281	8923.059570
1190.530273	8872.687500
1189.446289	8847.714844
1188.362305	9021.120117
1187.278320	8855.452148
1186.194336	8897.359375
1185.109375	8752.534180
1184.024414	8757.570313
1182.939453	8838.639648
1181.854492	8769.937500
1180.768555	8689.748047
1179.683594	8505.973633
1178.597656	8633.068359
1177.510742	8575.974609
1176.424805	8477.483398
1175.337891	8261.700195
1174.250977	8397.935547
1173.164063	8458.222656
1172.077148	8378.232422
1170.989258	8505.157227
1169.901367	8542.398438
1168.813477	8529.072266
1167.724609	8541.021484
1166.636719	8580.524414
1165.547852	8142.396973
1164.458984	8282.979492
1163.369141	8193.977539
1162.280273	8357.434570
1161.190430	8385.460938
1160.100586	8379.067383
1159.010742	8608.880859
1157.919922	8517.609375
1156.829102	8353.022461
1155.738281	8461.227539
1154.647461	8383.791992
1153.555664	8608.772461
1152.464844	8593.173828
1151.373047	8701.231445
1150.280273	8527.656250
1149.188477	8553.282227
1148.095703	8713.907227
1147.002930	8778.373047
1145.910156	8781.052734
1144.817383	8927.801758
1143.723633	8873.288086
1142.629883	8935.375000
1141.536133	8686.626953
1140.441406	8830.981445
1139.347656	8669.166992
1138.252930	8555.383789
1137.158203	8733.921875
1136.062500	8663.546875
1134.967773	8645.696289
1133.872070	8659.799805
1132.776367	8657.926758
1131.679688	8708.513672
1130.583984	8729.433594
1129.487305	8656.866211
1128.390625	8686.904297
1127.292969	8639.445313
1126.196289	8667.193359
1125.098633	8656.205078
1124.000977	8642.942383
1122.903320	8647.900391
1121.804688	8593.666992
1120.706055	8578.148438
1119.607422	8523.953125
1118.508789	8494.804688
1117.409180	8779.548828
1116.310547	8657.122070
1115.210938	8734.816406
1114.110352	8544.260742
1113.010742	8512.864258
1111.910156	8592.809570
1110.809570	8422.849609
1109.708984	8534.573242
1108.607422	8507.743164
1107.506836	8358.341797
1106.405273	8492.699219
1105.303711	8325.211914
1104.201172	8468.590820
1103.098633	8230.869141
1101.996094	8254.023438
1100.893555	8399.588867
1099.791016	8268.566406
1098.687500	8434.458984
1097.583984	8246.843750
1096.480469	8267.700195
1095.376953	8204.754883
1094.272461	8205.233398
1093.167969	8269.091797
1092.063477	8244.659180
1090.958008	8213.449219
1089.853516	8222.969727
1088.748047	8246.056641
1087.642578	8090.499023
1086.536133	8115.863770
1085.430664	8179.639648
1084.324219	8110.064941
1083.217773	8178.331543
1082.110352	8079.422852
1081.003906	8244.768555
1079.896484	8102.989746
1078.789063	8114.764160
1077.680664	8343.180664
1076.573242	8235.315430
1075.464844	8136.519043
1074.356445	8155.039063
1073.247070	8067.575684
1072.138672	8250.664063
1071.029297	8311.966797
1069.919922	8168.191895
1068.809570	8123.603027
1067.700195	8220.927734
1066.589844	8214.625977
1065.479492	8440.212891
1064.368164	8260.550781
1063.257813	8224.987305
1062.146484	8313.181641
1061.035156	8320.358398
1059.922852	8248.822266
1058.811523	8211.041992
1057.699219	8357.602539
1056.586914	8245.650391
1055.473633	8304.508789
1054.361328	8459.937500
1053.248047	8240.229492
1052.134766	8242.914063
1051.021484	8211.921875
1049.907227	8106.877441
1048.792969	8228.515625
1047.678711	8089.859863
1046.564453	8231.633789
1045.449219	8220.857422
1044.333984	8272.859375
1043.218750	8167.935059
1042.103516	8323.009766
1040.987305	8085.930176
1039.871094	8386.553711
1038.754883	8360.076172
1037.638672	8264.200195
1036.521484	8293.722656
1035.404297	8500.036133
1034.287109	8426.566406
1033.169922	8223.378906
1032.051758	8485.482422
1030.933594	8412.061523
1029.815430	8568.936523
1028.697266	8540.229492
1027.578125	8607.621094
1026.458984	8444.871094
1025.339844	8547.991211
1024.220703	8590.770508
1023.100586	8608.970703
1021.980469	8616.002930
1020.860352	8698.906250
1019.740234	8667.983398
1018.619141	8802.142578
1017.498047	8657.471680
1016.376953	8586.442383
1015.255859	8724.986328
1014.133789	8665.115234
1013.011719	8738.961914
1011.889648	8868.466797
1010.767578	8781.875977
1009.644531	8668.600586
1008.521484	8740.152344
1007.398438	8658.094727
1006.274414	8653.957031
1005.151367	8689.866211
1004.027344	8621.217773
1002.902344	8797.212891
1001.778320	8750.802734
1000.653320	8515.475586
999.528320	8500.258789
998.403320	8527.261719
997.278320	8416.531250
996.152344	8463.527344
995.026367	8332.875000
993.900391	8410.944336
992.773438	8426.836914
991.646484	8294.059570
990.519531	8241.200195
989.392578	8421.239258
988.265625	8443.764648
987.137695	8413.074219
986.009766	8276.009766
984.881836	8371.674805
983.752930	8367.602539
982.624023	8385.681641
981.495117	8211.096680
980.366211	8313.330078
979.236328	8384.529297
978.106445	8502.167969
976.976563	8298.946289
975.846680	8319.223633
974.715820	8193.534180
973.585938	8335.428711
972.454102	8276.103516
971.323242	8276.475586
970.191406	8283.474609
969.060547	8233.035156
967.927734	8279.792969
966.795898	8302.240234
965.663086	8390.904297
964.530273	8616.365234
963.397461	8420.270508
962.264648	8641.210938
961.130859	8731.922852
959.997070	8813.773438
958.863281	8862.516602
957.729492	8946.504883
956.594727	8862.978516
955.459961	8931.504883
954.325195	8828.193359
953.189453	8751.353516
952.053711	8511.624023
950.917969	8624.187500
949.782227	8457.213867
948.646484	8380.522461
947.509766	8328.060547
946.373047	8299.812500
945.235352	8423.288086
944.098633	8322.488281
942.960938	8325.026367
941.823242	8338.548828
940.685547	8226.849609
939.546875	8420.480469
938.408203	8407.621094
937.269531	8401.353516
936.129883	8331.437500
934.991211	8322.993164
933.851563	8242.156250
932.711914	8501.319336
931.571289	8448.984375
930.431641	8300.208008
929.291016	8543.838867
928.149414	8458.656250
927.008789	8426.091797
925.867188	8380.399414
924.725586	8463.929688
923.583984	8394.164063
922.441406	8442.629883
921.299805	8337.883789
920.157227	8202.552734
919.013672	8189.778809
917.871094	8201.065430
916.727539	8098.651367
915.583984	8090.278809
914.439453	8064.425293
913.295898	7986.142578
912.151367	8017.119629
911.006836	8131.074707
909.861328	8052.827637
908.716797	8035.740234
907.571289	8049.215332
906.424805	7966.672852
905.279297	8060.874023
904.132813	8126.677734
902.986328	8105.228027
901.839844	8151.370117
900.692383	8195.311523
899.545898	8121.559570
898.398438	8137.164063
897.250000	8248.598633
896.102539	8170.527344
894.954102	8179.576660
893.805664	7947.011230
892.656250	8208.541992
891.507813	8054.397949
890.358398	8069.987793
889.208984	8298.691406
888.058594	7925.032715
886.908203	8097.147949
885.758789	7975.797363
884.607422	7867.537109
883.457031	7961.345215
882.305664	7976.926758
881.154297	7962.102539
880.002930	7897.355957
878.850586	7928.131348
877.698242	7826.533203
876.545898	7722.811035
875.393555	7927.110352
874.240234	7866.777344
873.086914	7884.514648
871.933594	7737.522461
870.780273	7781.281738
869.625977	7805.523438
868.471680	7946.712402
867.317383	7776.016113
866.162109	7782.920898
865.007813	7854.755371
863.852539	7749.112305
862.696289	7855.535645
861.541016	7903.510254
860.384766	7960.111816
859.228516	7897.777832
858.072266	7826.825195
856.915039	7857.471680
855.757813	7669.890137
854.600586	7929.521484
853.442383	7783.038574
852.285156	7932.413086
851.126953	7814.056152
849.968750	7982.777832
848.809570	7821.309082
847.650391	7884.252930
846.491211	7774.637695
845.332031	7880.684570
844.171875	7822.854004
843.012695	7836.168945
841.851563	7866.714355
840.691406	7649.514160
839.530273	7751.159180
838.369141	7932.426270
837.208008	7700.287598
836.046875	7862.112305
834.884766	7806.536621
833.722656	7710.111816
832.560547	7626.634277
831.397461	7530.292480
830.234375	7719.916504
829.071289	7733.210938
827.908203	7656.247559
826.744141	7757.630371
825.580078	7848.227539
824.416016	7766.994141
823.251953	7619.243652
822.086914	7660.441895
820.921875	7755.267578
819.756836	7714.889160
818.590820	7884.730469
817.425781	7790.729004
816.259766	7748.224121
815.092773	7819.340820
813.926758	7725.416016
812.759766	7618.678223
811.592773	7784.022461
810.424805	7683.743164
809.257813	7568.521484
808.089844	7731.621582
806.920898	7565.079102
805.752930	7606.149414
804.583984	7632.227051
803.415039	7743.835449
802.246094	7566.748535
801.076172	7605.641113
799.906250	7608.183594
798.736328	7469.706543
797.566406	7583.357910
796.395508	7602.987305
795.224609	7703.744629
794.053711	7731.875000
792.881836	7900.850586
791.710938	7753.956543
790.538086	7942.047852
789.366211	8023.415039
788.194336	7885.120605
787.021484	7915.299805
785.848633	7768.566406
784.674805	7873.335449
783.500977	7690.461914
782.327148	7810.108398
781.153320	7718.893555
779.979492	7712.874512
778.804688	7638.749512
777.629883	7664.668457
776.454102	7650.154297
775.279297	7631.392578
774.103516	7584.994629
772.927734	7634.285156
771.750977	7564.526855
770.575195	7607.423340
769.398438	7824.507813
768.220703	7665.543457
767.043945	7846.414551
765.866211	7791.545410
764.688477	7834.337891
763.510742	7809.204102
762.332031	7720.434082
761.153320	7850.176270
759.974609	7723.265137
758.794922	7908.069336
757.616211	7861.748047
756.436523	8052.792480
755.255859	7995.864258
754.076172	8097.825684
752.895508	8250.564453
751.714844	8265.613281
750.533203	8511.378906
749.352539	8776.077148
748.170898	9201.452148
746.988281	9347.414063
745.806641	9799.953125
744.624023	10391.829102
743.441406	11285.709961
742.258789	12521.541992
741.075195	14213.182617
739.891602	16134.295898
738.708008	18179.128906
737.523438	20476.390625
736.339844	22618.501953
735.155273	23957.662109
733.969727	24800.369141
732.785156	24843.199219
731.599609	23570.001953
730.414063	22063.341797
729.227539	20228.521484
728.041992	18131.101563
726.855469	16137.885742
725.667969	14322.536133
724.481445	12693.353516
723.293945	11686.069336
722.106445	10826.604492
720.918945	10405.296875
719.730469	9914.745117
718.541992	9550.637695
717.353516	9079.434570
716.164063	8684.144531
714.975586	8574.936523
713.786133	8274.519531
712.595703	8133.936035
711.406250	7987.113770
710.215820	7972.676270
709.025391	7792.360352
707.833984	7832.555176
706.642578	7734.208008
705.451172	7545.676270
704.259766	7665.617188
703.068359	7737.262695
701.875977	7626.443848
700.683594	7643.557129
699.490234	7740.308105
698.297852	7696.617676
697.104492	7646.662109
695.910156	7690.980957
694.716797	7699.681152
693.522461	7873.765137
692.328125	7861.487305
691.132813	8010.341797
689.938477	8085.904785
688.743164	8209.539063
687.547852	7992.262695
686.351563	8097.044434
685.155273	7923.786133
683.958984	7867.629395
682.762695	7930.581543
681.565430	7836.851074
680.368164	7736.897949
679.170898	7672.482422
677.973633	7714.546875
676.775391	7677.292969
675.577148	7715.163086
674.378906	7725.899414
673.179688	7715.776367
671.980469	7753.609863
670.781250	7751.821777
669.581055	7725.026855
668.381836	7731.578613
667.181641	7677.721680
665.980469	7798.815430
664.780273	7732.475098
663.579102	7865.988281
662.377930	8018.168457
661.175781	7964.304688
659.973633	8191.272949
658.771484	8118.676270
657.569336	8114.723145
656.367188	8262.510742
655.164063	8374.900391
653.960938	8468.539063
652.756836	8545.516602
651.552734	8618.303711
650.348633	8651.609375
649.144531	8618.474609
647.939453	8579.128906
646.735352	8855.167969
645.529297	8763.926758
644.324219	8786.788086
643.118164	8788.904297
641.912109	8936.119141
640.706055	8853.231445
639.499023	8685.432617
638.292969	8764.210938
637.084961	8780.823242
635.877930	8934.078125
634.669922	8801.603516
633.461914	8888.557617
632.253906	9192.719727
631.044922	9120.262695
629.836914	8985.796875
628.626953	9064.354492
627.417969	9103.600586
626.208008	9146.960938
624.998047	8913.434570
623.788086	8884.518555
622.577148	8766.811523
621.366211	8673.934570
620.155273	8548.072266
618.944336	8385.119141
617.732422	8218.115234
616.520508	8220.338867
615.308594	8201.937500
614.095703	8195.915039
612.882813	8055.904785
611.669922	7889.166992
610.457031	7743.110352
609.243164	7566.221191
608.029297	7659.205078
606.815430	7647.136719
605.600586	7455.981445
604.385742	7454.254395
603.170898	7559.521973
601.955078	7489.886719
600.740234	7484.038574
599.524414	7482.305176
598.307617	7499.072754
597.091797	7314.423340
595.875000	7429.847656
594.658203	7308.980469
593.440430	7461.318848
592.222656	7412.364258
591.004883	7476.336426
589.787109	7441.766602
588.568359	7353.863770
587.349609	7311.131836
586.130859	7305.335449
584.912109	7231.876953
583.692383	7367.547852
582.472656	7412.978027
581.251953	7505.513672
580.032227	7673.801758
578.811523	7721.175781
577.589844	7715.290527
576.369141	7488.319824
575.147461	7683.060059
573.925781	7564.647461
572.703125	7845.197754
571.481445	7855.649414
570.258789	7725.009277
569.035156	7800.899414
567.812500	7897.191895
566.588867	7819.757813
565.365234	7942.557129
564.140625	7928.460449
562.916992	8024.631836
561.692383	7900.285156
560.466797	7906.616211
559.242188	7870.093750
558.016602	7819.308105
556.791016	7929.667480
555.564453	7697.415039
554.337891	7893.371094
553.111328	7665.309570
551.884766	7769.487793
550.657227	7873.617188
549.429688	7712.928711
548.202148	7827.202637
546.974609	7792.814453
545.746094	7734.018066
544.517578	7825.823730
543.288086	7769.080566
542.058594	7834.394531
540.829102	7995.246582
539.599609	8025.916992
538.370117	7869.589355
537.139648	7918.561523
535.909180	7792.802246
534.677734	7882.389160
533.446289	7906.956543
532.214844	7844.218750
530.983398	7732.798828
529.750977	7641.721680
528.519531	7674.435059
527.286133	7632.089355
526.053711	7557.319336
524.820313	7561.646484
523.586914	7537.596680
522.353516	7679.714355
521.119141	7544.226074
519.884766	7734.884277
518.650391	7536.673340
517.415039	7470.141602
516.179688	7423.879883
514.944336	7422.156250
513.708984	7351.649902
