#Wave		#Intensity
1585.210938	12628.097656
1584.209961	12693.036133
1583.208984	12722.869141
1582.208008	12555.457031
1581.206055	12510.421875
1580.204102	12253.281250
1579.202148	12293.159180
1578.200195	12410.350586
1577.198242	12714.544922
1576.195313	12622.144531
1575.192383	12514.824219
1574.189453	12639.348633
1573.186523	12482.229492
1572.182617	12265.379883
1571.178711	12409.803711
1570.174805	12394.782227
1569.170898	12534.138672
1568.166992	12501.670898
1567.162109	12546.370117
1566.158203	12543.771484
1565.153320	12678.004883
1564.147461	12600.759766
1563.142578	12618.044922
1562.136719	12652.726563
1561.130859	12771.909180
1560.125000	12801.573242
1559.119141	12798.922852
1558.113281	13414.845703
1557.106445	13454.291016
1556.099609	13672.510742
1555.092773	13543.062500
1554.084961	14044.139648
1553.078125	13974.226563
1552.070313	13986.220703
1551.062500	13884.099609
1550.054688	14030.031250
1549.045898	14032.085938
1548.038086	13865.560547
1547.029297	13897.389648
1546.020508	13433.592773
1545.011719	13524.958008
1544.001953	13103.538086
1542.992188	13175.121094
1541.982422	13043.640625
1540.972656	13038.464844
1539.962891	12897.166016
1538.952148	12523.324219
1537.942383	12748.335938
1536.931641	12359.837891
1535.919922	12446.304688
1534.909180	12423.949219
1533.897461	12255.757813
1532.886719	12349.605469
1531.874023	12324.810547
1530.862305	12468.010742
1529.850586	12159.166016
1528.837891	12245.544922
1527.825195	11919.590820
1526.812500	12223.196289
1525.799805	12151.566406
1524.786133	12306.958008
1523.772461	12171.203125
1522.758789	12099.625977
1521.745117	12240.135742
1520.731445	12136.525391
1519.716797	12239.997070
1518.702148	11986.108398
1517.687500	11912.178711
1516.672852	12062.431641
1515.657227	12106.725586
1514.642578	12195.320313
1513.626953	12310.956055
1512.610352	12214.880859
1511.594727	12261.564453
1510.579102	12121.255859
1509.562500	11978.544922
1508.545898	12187.550781
1507.529297	12111.266602
1506.511719	12194.792969
1505.494141	12106.250000
1504.477539	12460.023438
1503.458984	12253.544922
1502.441406	12344.337891
1501.423828	12368.791992
1500.405273	12422.696289
1499.386719	12525.668945
1498.368164	12584.425781
1497.348633	12495.944336
1496.330078	12461.464844
1495.310547	12571.700195
1494.291016	12797.133789
1493.271484	12684.163086
1492.250977	12600.651367
1491.231445	12580.886719
1490.210938	12543.979492
1489.190430	12634.459961
1488.168945	12673.474609
1487.148438	12739.405273
1486.126953	12668.221680
1485.105469	12626.436523
1484.083984	12589.561523
1483.061523	12836.489258
1482.040039	12965.908203
1481.017578	12735.795898
1479.995117	12828.506836
1478.971680	13150.954102
1477.949219	13265.535156
1476.925781	13184.595703
1475.902344	13604.482422
1474.878906	13850.785156
1473.855469	13559.770508
1472.831055	13744.944336
1471.806641	13969.093750
1470.782227	14046.728516
1469.757813	14304.879883
1468.733398	14621.466797
1467.708008	15059.865234
1466.682617	15576.106445
1465.657227	15882.479492
1464.631836	16469.017578
1463.605469	16901.791016
1462.579102	17341.693359
1461.552734	17905.638672
1460.526367	18055.345703
1459.500000	18304.818359
1458.472656	18405.693359
1457.445313	18253.412109
1456.417969	17947.896484
1455.390625	17440.585938
1454.362305	17067.259766
1453.334961	16674.632813
1452.306641	16068.216797
1451.277344	15758.605469
1450.249023	15385.934570
1449.219727	15010.987305
1448.191406	14662.916992
1447.162109	14533.577148
1446.131836	14411.575195
1445.102539	14192.512695
1444.072266	14007.522461
1443.041992	13871.142578
1442.011719	13996.850586
1440.981445	13761.073242
1439.950195	13714.560547
1438.918945	13619.571289
1437.887695	13699.164063
1436.856445	13565.436523
1435.825195	13409.956055
1434.792969	13244.847656
1433.760742	13050.741211
1432.728516	13045.606445
1431.696289	12907.307617
1430.663086	12868.313477
1429.629883	12766.411133
1428.596680	12746.818359
1427.563477	12661.915039
1426.530273	12538.348633
1425.496094	12542.994141
1424.461914	12714.456055
1423.427734	12298.477539
1422.393555	12368.417969
1421.358398	12363.428711
1420.323242	12153.110352
1419.288086	12450.058594
1418.252930	12326.734375
1417.217773	12336.239258
1416.181641	12217.817383
1415.145508	12456.586914
1414.109375	12675.955078
1413.073242	12673.315430
1412.036133	12735.790039
1411.000000	12901.916016
1409.962891	12971.546875
1408.924805	13279.750000
1407.887695	13395.054688
1406.849609	13645.221680
1405.812500	14169.864258
1404.773438	14489.598633
1403.735352	14903.094727
1402.697266	15222.541016
1401.658203	15558.699219
1400.619141	15584.329102
1399.580078	16026.116211
1398.540039	16015.559570
1397.500977	15942.486328
1396.460938	15785.299805
1395.420898	15894.976563
1394.380859	15502.360352
1393.339844	15607.243164
1392.298828	15522.315430
1391.257813	15254.902344
1390.216797	15102.851563
1389.175781	14898.050781
1388.133789	15158.950195
1387.091797	15239.772461
1386.049805	15666.027344
1385.007813	15869.035156
1383.964844	16333.347656
1382.922852	16831.031250
1381.879883	17275.771484
1380.835938	17758.669922
1379.792969	18241.365234
1378.749023	18774.164063
1377.706055	18966.638672
1376.661133	19226.078125
1375.617188	19320.218750
1374.573242	19409.529297
1373.528320	19606.492188
1372.483398	19406.201172
1371.438477	19107.919922
1370.392578	18821.718750
1369.347656	18351.521484
1368.301758	17993.878906
1367.255859	17693.746094
1366.208984	17269.478516
1365.163086	16933.785156
1364.116211	16462.080078
1363.069336	16341.620117
1362.022461	16049.302734
1360.974609	15886.009766
1359.927734	15510.377930
1358.879883	15970.030273
1357.832031	15959.530273
1356.783203	15810.698242
1355.735352	15783.541992
1354.686523	16161.688477
1353.637695	16303.702148
1352.588867	16247.858398
1351.539063	16880.603516
1350.490234	17460.677734
1349.440430	17869.033203
1348.390625	18462.939453
1347.339844	19166.105469
1346.290039	19709.505859
1345.239258	20333.585938
1344.188477	20914.578125
1343.137695	21354.988281
1342.085938	21840.396484
1341.034180	22620.419922
1339.982422	23190.931641
1338.930664	23490.269531
1337.878906	23568.503906
1336.826172	23765.482422
1335.773438	23651.240234
1334.720703	23641.525391
1333.667969	23572.460938
1332.614258	23346.765625
1331.561523	22969.285156
1330.507813	22568.236328
1329.453125	21885.072266
1328.399414	21472.556641
1327.344727	20944.029297
1326.290039	20394.386719
1325.235352	20115.167969
1324.180664	19456.925781
1323.125000	19211.183594
1322.070313	19074.501953
1321.014648	18710.537109
1319.958008	18514.824219
1318.902344	18113.251953
1317.845703	18031.343750
1316.789063	17516.464844
1315.732422	17238.365234
1314.675781	17017.146484
1313.618164	16493.343750
1312.560547	16624.626953
1311.502930	16049.125977
1310.445313	15948.857422
1309.386719	15515.497070
1308.329102	15594.904297
1307.270508	15537.301758
1306.210938	15047.629883
1305.152344	14815.475586
1304.092773	14552.736328
1303.033203	14556.748047
1301.973633	14336.635742
1300.914063	14093.029297
1299.853516	14104.207031
1298.792969	13837.172852
1297.732422	13893.183594
1296.671875	13661.655273
1295.611328	13687.046875
1294.549805	13545.173828
1293.488281	13469.304688
1292.426758	13449.978516
1291.364258	13239.970703
1290.302734	13489.020508
1289.240234	13401.457031
1288.177734	13398.626953
1287.114258	13518.111328
1286.051758	13303.601563
1284.988281	13498.291992
1283.924805	13826.890625
1282.861328	13981.432617
1281.796875	14013.722656
1280.732422	14428.921875
1279.667969	14634.907227
1278.603516	14772.706055
1277.539063	15201.564453
1276.473633	15573.906250
1275.408203	15969.556641
1274.342773	15945.061523
1273.277344	16281.819336
1272.210938	16217.396484
1271.145508	16167.068359
1270.079102	15987.826172
1269.011719	15834.440430
1267.945313	15416.329102
1266.877930	14967.937500
1265.810547	14805.492188
1264.743164	14420.645508
1263.674805	14003.183594
1262.607422	13962.762695
1261.539063	13571.315430
1260.470703	13238.527344
1259.401367	13139.809570
1258.333008	12914.836914
1257.263672	12680.605469
1256.194336	12628.821289
1255.125000	12574.720703
1254.054688	12476.243164
1252.985352	12473.594727
1251.915039	12321.454102
1250.843750	12351.532227
1249.773438	12082.739258
1248.702148	12150.203125
1247.630859	11953.913086
1246.559570	11977.040039
1245.488281	12086.471680
1244.416016	12018.597656
1243.343750	12109.317383
1242.271484	11929.559570
1241.199219	12066.875000
1240.125977	11996.727539
1239.053711	12038.444336
1237.980469	11940.378906
1236.906250	11900.576172
1235.833008	12037.747070
1234.758789	11958.364258
1233.684570	12332.856445
1232.610352	12102.194336
1231.536133	12208.958984
1230.460938	12220.313477
1229.385742	12275.846680
1228.310547	12303.455078
1227.235352	12254.344727
1226.159180	12179.691406
1225.083008	12335.088867
1224.006836	12000.279297
1222.930664	12095.263672
1221.853516	12164.664063
1220.777344	12148.140625
1219.700195	12226.783203
1218.622070	12212.572266
1217.544922	12270.285156
1216.466797	12086.747070
1215.388672	12260.409180
1214.310547	12012.033203
1213.232422	12241.266602
1212.153320	12257.191406
1211.074219	12282.377930
1209.995117	12379.363281
1208.916016	12316.501953
1207.835938	12522.264648
1206.755859	12551.999023
1205.675781	12586.347656
1204.595703	12241.180664
1203.514648	12437.526367
1202.434570	12481.126953
1201.353516	12395.205078
1200.271484	12443.417969
1199.190430	12325.177734
1198.108398	12347.960938
1197.026367	12407.702148
1195.944336	12113.977539
1194.862305	12102.145508
1193.779297	12083.389648
1192.696289	11923.817383
1191.613281	11653.524414
1190.530273	11533.339844
1189.446289	11837.711914
1188.362305	11556.075195
1187.278320	11542.067383
1186.194336	11509.619141
1185.109375	11239.756836
1184.024414	11283.437500
1182.939453	11276.408203
1181.854492	11151.895508
1180.768555	11096.530273
1179.683594	10880.001953
1178.597656	10780.975586
1177.510742	10797.073242
1176.424805	10803.958984
1175.337891	10944.279297
1174.250977	10826.918945
1173.164063	10833.791016
1172.077148	10792.376953
1170.989258	10927.978516
1169.901367	10808.419922
1168.813477	10819.881836
1167.724609	10992.142578
1166.636719	10897.909180
1165.547852	10845.047852
1164.458984	10686.604492
1163.369141	10918.417969
1162.280273	10819.688477
1161.190430	10739.354492
1160.100586	10794.385742
1159.010742	10757.662109
1157.919922	10872.275391
1156.829102	11000.591797
1155.738281	11108.225586
1154.647461	11023.345703
1153.555664	10979.735352
1152.464844	11217.847656
1151.373047	11089.490234
1150.280273	11416.757813
1149.188477	11244.922852
1148.095703	11368.353516
1147.002930	11397.929688
1145.910156	11361.159180
1144.817383	11381.575195
1143.723633	11431.703125
1142.629883	11289.797852
1141.536133	11296.500000
1140.441406	11305.483398
1139.347656	11223.087891
1138.252930	11117.888672
1137.158203	11286.738281
1136.062500	11085.686523
1134.967773	11227.080078
1133.872070	11032.972656
1132.776367	11021.459961
1131.679688	11108.031250
1130.583984	11121.590820
1129.487305	11005.187500
1128.390625	10884.274414
1127.292969	10966.238281
1126.196289	11020.824219
1125.098633	10947.821289
1124.000977	10961.391602
1122.903320	10940.800781
1121.804688	10881.517578
1120.706055	11106.756836
1119.607422	10876.800781
1118.508789	10883.541992
1117.409180	10735.614258
1116.310547	10997.069336
1115.210938	10726.409180
1114.110352	10719.536133
1113.010742	10601.310547
1111.910156	10796.675781
1110.809570	10860.206055
1109.708984	10912.353516
1108.607422	10803.267578
1107.506836	10939.393555
1106.405273	10843.964844
1105.303711	10612.432617
1104.201172	10653.228516
1103.098633	10802.874023
1101.996094	10399.162109
1100.893555	10698.423828
1099.791016	10541.967773
1098.687500	10555.537109
1097.583984	10331.209961
1096.480469	10496.581055
1095.376953	10310.861328
1094.272461	10392.389648
1093.167969	10496.517578
1092.063477	10383.336914
1090.958008	10485.157227
1089.853516	10369.764648
1088.748047	10317.748047
1087.642578	10586.840820
1086.536133	10385.592773
1085.430664	10634.209961
1084.324219	10396.881836
1083.217773	10401.391602
1082.110352	10392.346680
1081.003906	10523.314453
1079.896484	10256.863281
1078.789063	10410.374023
1077.680664	10428.411133
1076.573242	10502.846680
1075.464844	10502.808594
1074.356445	10412.559570
1073.247070	10367.443359
1072.138672	10617.657227
1071.029297	10453.064453
1069.919922	10565.697266
1068.809570	10394.426758
1067.700195	10306.566406
1066.589844	10554.263672
1065.479492	10500.173828
1064.368164	10666.689453
1063.257813	10583.342773
1062.146484	10572.026367
1061.035156	10401.010742
1059.922852	10513.424805
1058.811523	10434.677734
1057.699219	10547.034180
1056.586914	10495.281250
1055.473633	10432.315430
1054.361328	10418.796875
1053.248047	10421.004883
1052.134766	10490.573242
1051.021484	10526.436523
1049.907227	10575.749023
1048.792969	10575.672852
1047.678711	10584.570313
1046.564453	10492.529297
1045.449219	10613.561523
1044.333984	10530.520508
1043.218750	10649.248047
1042.103516	10644.667969
1040.987305	10554.951172
1039.871094	10436.152344
1038.754883	10554.791992
1037.638672	10617.404297
1036.521484	10740.427734
1035.404297	10852.205078
1034.287109	10639.490234
1033.169922	10737.817383
1032.051758	10724.272461
1030.933594	11059.558594
1029.815430	10956.524414
1028.697266	10858.003906
1027.578125	11045.553711
1026.458984	11112.377930
1025.339844	10835.198242
1024.220703	10962.332031
1023.100586	11118.432617
1021.980469	11258.838867
1020.860352	11234.041016
1019.740234	11231.564453
1018.619141	11099.710938
1017.498047	11255.604492
1016.376953	11181.772461
1015.255859	11141.410156
1014.133789	11230.328125
1013.011719	11107.527344
1011.889648	11307.796875
1010.767578	11269.665039
1009.644531	11220.416016
1008.521484	11204.581055
1007.398438	11257.749023
1006.274414	11250.811523
1005.151367	11299.495117
1004.027344	11145.749023
1002.902344	11054.334961
1001.778320	10996.308594
1000.653320	11022.773438
999.528320	11004.779297
998.403320	10869.038086
997.278320	10937.714844
996.152344	11030.790039
995.026367	11083.856445
993.900391	10768.406250
992.773438	10854.795898
991.646484	10934.490234
990.519531	10816.713867
989.392578	10685.681641
988.265625	10845.181641
987.137695	11046.732422
986.009766	10986.657227
984.881836	10988.653320
983.752930	11099.203125
982.624023	11048.013672
981.495117	11092.066406
980.366211	10808.435547
979.236328	11084.931641
978.106445	11100.174805
976.976563	10814.516602
975.846680	10980.225586
974.715820	10907.019531
973.585938	10789.625977
972.454102	10696.599609
971.323242	10773.783203
970.191406	10791.274414
969.060547	10852.938477
967.927734	10748.933594
966.795898	10733.294922
965.663086	10883.229492
964.530273	10997.783203
963.397461	11021.816406
962.264648	11167.170898
961.130859	11312.460938
959.997070	11389.326172
958.863281	11459.542969
957.729492	11355.602539
956.594727	11262.725586
955.459961	11205.138672
954.325195	11345.814453
953.189453	11347.690430
952.053711	11085.366211
950.917969	10882.588867
949.782227	10776.731445
948.646484	10675.319336
947.509766	10664.140625
946.373047	10789.316406
945.235352	10657.184570
944.098633	10654.807617
942.960938	10757.920898
941.823242	10755.519531
940.685547	10845.382813
939.546875	10750.717773
938.408203	10974.482422
937.269531	10831.533203
936.129883	10916.905273
934.991211	10863.997070
933.851563	11037.074219
932.711914	11052.154297
931.571289	11097.925781
930.431641	11047.212891
929.291016	11134.608398
928.149414	10987.488281
927.008789	11208.499023
925.867188	11076.758789
924.725586	11218.813477
923.583984	11038.960938
922.441406	10981.766602
921.299805	10773.596680
920.157227	10736.176758
919.013672	10630.962891
917.871094	10624.207031
916.727539	10475.333984
915.583984	10276.250000
914.439453	10324.212891
913.295898	10219.204102
912.151367	10319.583984
911.006836	10109.789063
909.861328	10369.543945
908.716797	10378.133789
907.571289	10166.281250
906.424805	10369.112305
905.279297	10312.246094
904.132813	10309.931641
902.986328	10386.118164
901.839844	10407.766602
900.692383	10507.871094
899.545898	10283.241211
898.398438	10272.216797
897.250000	10335.251953
896.102539	10385.193359
894.954102	10234.812500
893.805664	10373.995117
892.656250	10502.233398
891.507813	10297.532227
890.358398	10303.916992
889.208984	10197.212891
888.058594	10142.737305
886.908203	10044.810547
885.758789	10081.668945
884.607422	10164.136719
883.457031	10046.717773
882.305664	9951.069336
881.154297	10094.304688
880.002930	9957.441406
878.850586	9935.665039
877.698242	9965.973633
876.545898	10059.178711
875.393555	10078.599609
874.240234	9935.384766
873.086914	9993.844727
871.933594	9939.574219
870.780273	9922.164063
869.625977	9919.925781
868.471680	10049.807617
867.317383	9911.118164
866.162109	9984.654297
865.007813	9867.685547
863.852539	9949.851563
862.696289	10073.085938
861.541016	9783.134766
860.384766	9958.249023
859.228516	9867.357422
858.072266	9834.867188
856.915039	9873.704102
855.757813	9739.679688
854.600586	9966.443359
853.442383	9927.477539
852.285156	9750.347656
851.126953	9959.683594
849.968750	9929.375977
848.809570	9989.700195
847.650391	10026.267578
846.491211	9765.203125
845.332031	9849.238281
844.171875	9853.476563
843.012695	9907.279297
841.851563	9948.129883
840.691406	9859.708984
839.530273	9902.703125
838.369141	9816.485352
837.208008	9921.896484
836.046875	10042.326172
834.884766	9781.839844
833.722656	9704.329102
832.560547	9846.230469
831.397461	9843.997070
830.234375	9680.530273
829.071289	9934.102539
827.908203	10002.759766
826.744141	9878.035156
825.580078	9847.872070
824.416016	9993.804688
823.251953	9684.533203
822.086914	9785.361328
820.921875	9868.975586
819.756836	9785.208984
818.590820	10076.839844
817.425781	9982.340820
816.259766	9928.618164
815.092773	9973.517578
813.926758	9836.244141
812.759766	9906.852539
811.592773	9823.205078
810.424805	9844.528320
809.257813	9707.405273
808.089844	9818.645508
806.920898	9869.914063
805.752930	9844.133789
804.583984	9944.569336
803.415039	9745.555664
802.246094	9803.205078
801.076172	9873.652344
799.906250	9781.645508
798.736328	9762.325195
797.566406	9826.323242
796.395508	10031.245117
795.224609	9890.172852
794.053711	9949.826172
792.881836	10143.906250
791.710938	10216.275391
790.538086	10228.879883
789.366211	10200.955078
788.194336	10309.507813
787.021484	10294.366211
785.848633	10251.524414
784.674805	10317.372070
783.500977	10146.723633
782.327148	9982.541016
781.153320	9997.297852
779.979492	9843.867188
778.804688	10028.917969
777.629883	9952.152344
776.454102	9915.842773
775.279297	9858.278320
774.103516	9902.808594
772.927734	9887.791992
771.750977	9900.412109
770.575195	10044.773438
769.398438	9870.394531
768.220703	9978.587891
767.043945	10027.272461
765.866211	10264.883789
764.688477	10192.493164
763.510742	10179.552734
762.332031	10037.200195
761.153320	10236.409180
759.974609	10159.846680
758.794922	10246.568359
757.616211	10587.606445
756.436523	10498.298828
755.255859	10678.101563
754.076172	10718.021484
752.895508	10937.927734
751.714844	11223.365234
750.533203	11402.834961
749.352539	11903.890625
748.170898	12324.317383
746.988281	12920.118164
745.806641	14116.247070
744.624023	15282.226563
743.441406	17138.890625
742.258789	19647.726563
741.075195	22924.488281
739.891602	26506.042969
738.708008	30438.636719
737.523438	34310.308594
736.339844	36841.878906
735.155273	38528.109375
733.969727	38981.351563
732.785156	37092.875000
731.599609	34762.378906
730.414063	31262.726563
729.227539	27397.884766
728.041992	23901.525391
726.855469	20573.222656
725.667969	17878.417969
724.481445	16136.796875
723.293945	14659.173828
722.106445	13647.458008
720.918945	12794.053711
719.730469	12071.497070
718.541992	11696.375977
717.353516	11346.664063
716.164063	10862.540039
714.975586	10666.640625
713.786133	10548.593750
712.595703	10258.298828
711.406250	10180.313477
710.215820	10131.767578
709.025391	9974.052734
707.833984	9906.681641
706.642578	10038.728516
705.451172	9813.995117
704.259766	9975.372070
703.068359	9847.234375
701.875977	9840.775391
700.683594	9830.125977
699.490234	10029.075195
698.297852	10020.480469
697.104492	9808.677734
695.910156	9925.805664
694.716797	10091.041992
693.522461	10203.863281
692.328125	10391.981445
691.132813	10416.792969
689.938477	10575.484375
688.743164	10639.980469
687.547852	10800.637695
686.351563	10737.521484
685.155273	10676.523438
683.958984	10488.083008
682.762695	10402.098633
681.565430	10253.491211
680.368164	10315.864258
679.170898	10163.168945
677.973633	10094.033203
676.775391	9987.367188
675.577148	10087.293945
674.378906	10157.972656
673.179688	10032.594727
671.980469	10090.742188
670.781250	10086.331055
669.581055	10181.948242
668.381836	10160.848633
667.181641	10108.514648
665.980469	10160.326172
664.780273	10068.457031
663.579102	10278.446289
662.377930	10563.255859
661.175781	10644.039063
659.973633	10408.616211
658.771484	10659.921875
657.569336	10919.427734
656.367188	11118.533203
655.164063	11230.263672
653.960938	11314.931641
652.756836	11434.873047
651.552734	11587.984375
650.348633	11857.292969
649.144531	11727.933594
647.939453	11866.342773
646.735352	11975.639648
645.529297	11950.055664
644.324219	12065.501953
643.118164	12097.960938
641.912109	11788.381836
640.706055	12034.342773
639.499023	11985.979492
638.292969	12012.208984
637.084961	12166.824219
635.877930	12122.602539
634.669922	12165.339844
633.461914	12216.333984
632.253906	12343.858398
631.044922	12363.757813
629.836914	12284.379883
628.626953	12300.147461
627.417969	12282.832031
626.208008	12015.460938
624.998047	11878.380859
623.788086	11813.662109
622.577148	11276.040039
621.366211	11147.482422
620.155273	11200.637695
618.944336	10938.009766
617.732422	10576.464844
616.520508	10510.069336
615.308594	10256.031250
614.095703	10204.171875
612.882813	10164.705078
611.669922	10141.742188
610.457031	9883.900391
609.243164	9984.610352
608.029297	9891.681641
606.815430	9776.145508
605.600586	9747.121094
604.385742	9781.908203
603.170898	9687.051758
601.955078	9686.865234
600.740234	9840.924805
599.524414	9731.725586
598.307617	9778.807617
597.091797	9675.837891
595.875000	9679.759766
594.658203	9730.927734
593.440430	9683.490234
592.222656	9636.073242
591.004883	9685.161133
589.787109	9752.696289
588.568359	9621.168945
587.349609	9737.918945
586.130859	9694.643555
584.912109	9743.657227
583.692383	9872.595703
582.472656	9765.783203
581.251953	10130.291992
580.032227	10160.719727
578.811523	10289.439453
577.589844	10303.434570
576.369141	10198.690430
575.147461	10214.745117
573.925781	10318.776367
572.703125	10387.982422
571.481445	10487.833984
570.258789	10577.415039
569.035156	10689.440430
567.812500	10699.223633
566.588867	10745.781250
565.365234	10671.789063
564.140625	10797.983398
562.916992	10770.975586
561.692383	10678.654297
560.466797	10710.873047
559.242188	10441.086914
558.016602	10530.463867
556.791016	10462.755859
555.564453	10321.672852
554.337891	10565.945313
553.111328	10322.998047
551.884766	10359.317383
550.657227	10312.095703
549.429688	10173.245117
548.202148	10146.449219
546.974609	10184.809570
545.746094	10241.468750
544.517578	10338.795898
543.288086	10216.372070
542.058594	10356.370117
540.829102	10461.735352
539.599609	10363.760742
538.370117	10343.062500
537.139648	10342.694336
535.909180	10220.434570
534.677734	10388.667969
533.446289	10211.628906
532.214844	10199.108398
530.983398	9989.720703
529.750977	10170.023438
528.519531	9914.080078
527.286133	9952.341797
526.053711	9948.003906
524.820313	9972.047852
523.586914	9925.143555
522.353516	10034.286133
521.119141	9888.122070
519.884766	10027.601563
518.650391	9974.651367
517.415039	9927.797852
516.179688	9927.516602
514.944336	10097.208008
513.708984	9933.022461
