#Wave		#Intensity
2109.224609	12196.356445
2107.712891	12118.620117
2106.201172	12094.501953
2104.687500	12015.836914
2103.175781	12315.719727
2101.662109	12099.880859
2100.150391	12184.833008
2098.636719	12144.208984
2097.123047	12212.599609
2095.607422	12138.965820
2094.093750	12208.979492
2092.578125	12189.840820
2091.064453	12190.511719
2089.548828	12082.302734
2088.033203	11954.348633
2086.517578	12164.489258
2085.000000	12051.410156
2083.484375	11992.773438
2081.966797	12052.810547
2080.449219	12073.281250
2078.931641	11892.784180
2077.414063	12087.845703
2075.894531	11961.757813
2074.376953	12150.136719
2072.857422	12043.838867
2071.337891	12008.340820
2069.818359	12119.268555
2068.298828	11888.047852
2066.777344	12069.662109
2065.257813	11935.547852
2063.736328	11944.490234
2062.214844	12025.733398
2060.693359	12026.437500
2059.171875	11949.939453
2057.648438	11768.369141
2056.126953	11854.506836
2054.603516	11983.288086
2053.080078	12054.571289
2051.556641	11937.127930
2050.033203	11891.916016
2048.507813	11804.080078
2046.984375	11981.926758
2045.458984	11892.469727
2043.933594	11758.795898
2042.408203	11805.439453
2040.882813	11920.875977
2039.355469	11923.238281
2037.830078	11991.106445
2036.302734	11975.441406
2034.775391	11881.208984
2033.248047	11994.868164
2031.718750	11885.944336
2030.191406	11953.748047
2028.662109	11785.999023
2027.134766	11848.888672
2025.605469	11821.833984
2024.076172	11986.030273
2022.544922	11860.906250
2021.015625	11956.402344
2019.484375	12007.754883
2017.955078	11864.741211
2016.423828	11721.788086
2014.892578	11874.368164
2013.359375	11693.936523
2011.828125	11932.939453
2010.294922	11920.605469
2008.761719	11834.879883
2007.230469	11675.808594
2005.695313	11854.288086
2004.162109	11773.520508
2002.628906	11813.382813
2001.093750	11841.821289
1999.558594	11748.076172
1998.023438	11654.371094
1996.488281	11767.496094
1994.953125	11813.827148
1993.417969	11812.939453
1991.880859	11947.111328
1990.343750	11838.820313
1988.806641	11709.430664
1987.269531	11893.951172
1985.732422	11628.033203
1984.193359	11752.347656
1982.656250	11548.329102
1981.117188	11804.216797
1979.578125	11738.352539
1978.039063	11821.934570
1976.500000	11855.144531
1974.958984	11633.461914
1973.417969	11770.574219
1971.878906	11479.225586
1970.337891	11765.572266
1968.796875	11746.851563
1967.253906	11720.031250
1965.712891	11686.735352
1964.169922	11792.861328
1962.626953	11879.494141
1961.083984	11964.468750
1959.541016	11783.731445
1957.998047	11679.192383
1956.455078	11827.307617
1954.910156	11633.761719
1953.365234	11807.720703
1951.820313	11601.314453
1950.275391	11718.579102
1948.730469	11921.525391
1947.183594	11797.705078
1945.638672	11819.456055
1944.091797	11716.723633
1942.544922	11667.369141
1940.998047	11747.304688
1939.449219	11748.044922
1937.902344	11634.107422
1936.353516	11502.455078
1934.804688	11667.924805
1933.255859	11938.243164
1931.707031	11817.905273
1930.158203	11634.693359
1928.607422	11738.695313
1927.058594	11650.731445
1925.507813	11628.914063
1923.957031	11524.888672
1922.406250	11585.306641
1920.853516	11647.309570
1919.302734	11615.844727
1917.750000	11711.639648
1916.197266	11565.835938
1914.644531	11597.198242
1913.091797	11502.990234
1911.539063	11669.539063
1909.984375	11636.498047
1908.431641	11658.166016
1906.876953	11562.415039
1905.322266	11511.728516
1903.767578	11594.499023
1902.210938	11413.632813
1900.656250	11536.563477
1899.099609	11661.047852
1897.542969	11525.257813
1895.986328	11598.300781
1894.429688	11546.073242
1892.873047	11413.603516
1891.314453	11335.757813
1889.755859	11476.170898
1888.199219	11586.042969
1886.640625	11436.032227
1885.080078	11481.721680
1883.521484	11469.675781
1881.960938	11558.617188
1880.402344	11468.032227
1878.841797	11324.611328
1877.281250	11373.478516
1875.720703	11497.597656
1874.158203	11463.143555
1872.597656	11523.155273
1871.035156	11575.138672
1869.472656	11527.887695
1867.910156	11440.658203
1866.347656	11491.025391
1864.783203	11461.411133
1863.220703	11363.058594
1861.656250	11466.160156
1860.091797	11473.327148
1858.527344	11426.163086
1856.962891	11449.309570
1855.396484	11603.413086
1853.832031	11350.260742
1852.265625	11577.757813
1850.699219	11565.735352
1849.132813	11475.522461
1847.566406	11442.784180
1845.998047	11426.011719
1844.431641	11449.115234
1842.863281	11510.475586
1841.294922	11538.333008
1839.726563	11459.394531
1838.156250	11528.679688
1836.587891	11516.686523
1835.017578	11452.135742
1833.449219	11524.562500
1831.878906	11393.167969
1830.306641	11414.638672
1828.736328	11580.920898
1827.166016	11347.764648
1825.593750	11491.719727
1824.021484	11519.510742
1822.449219	11556.831055
1820.876953	11438.337891
1819.304688	11462.943359
1817.730469	11458.933594
1816.158203	11529.596680
1814.583984	11422.326172
1813.009766	11332.569336
1811.435547	11479.424805
1809.859375	11316.671875
1808.285156	11458.706055
1806.708984	11443.592773
1805.132813	11396.756836
1803.556641	11367.386719
1801.980469	11518.802734
1800.404297	11500.516602
1798.826172	11488.577148
1797.248047	11511.506836
1795.671875	11513.829102
1794.093750	11486.052734
1792.513672	11529.554688
1790.935547	11538.204102
1789.355469	11644.998047
1787.777344	11433.618164
1786.197266	11697.045898
1784.617188	11563.264648
1783.035156	11639.908203
1781.455078	11582.100586
1779.873047	11617.599609
1778.292969	11651.501953
1776.710938	11603.209961
1775.128906	11589.698242
1773.544922	11699.410156
1771.962891	11551.634766
1770.378906	11632.883789
1768.794922	11579.907227
1767.212891	11612.184570
1765.626953	11595.529297
1764.042969	11815.537109
1762.458984	11811.462891
1760.873047	11607.104492
1759.287109	11722.905273
1757.701172	11759.837891
1756.115234	11740.015625
1754.529297	11781.654297
1752.941406	11979.238281
1751.355469	11866.452148
1749.767578	11830.875000
1748.179688	11889.775391
1746.591797	12021.055664
1745.001953	11949.270508
1743.414063	12006.533203
1741.824219	11897.026367
1740.234375	12047.065430
1738.644531	12009.924805
1737.054688	11971.228516
1735.462891	12250.035156
1733.873047	12252.158203
1732.281250	12224.430664
1730.689453	12195.141602
1729.097656	12285.215820
1727.505859	12259.065430
1725.912109	12358.504883
1724.320313	12530.093750
1722.726563	12463.110352
1721.132813	12695.783203
1719.539063	12577.035156
1717.945313	12862.898438
1716.349609	12777.085938
1714.755859	12852.751953
1713.160156	12893.909180
1711.564453	13029.053711
1709.968750	13045.091797
1708.371094	12912.344727
1706.775391	12931.531250
1705.177734	13039.937500
1703.580078	13131.081055
1701.982422	13143.948242
1700.384766	13357.054688
1698.787109	13225.969727
1697.187500	13454.604492
1695.587891	13348.567383
1693.990234	13464.534180
1692.390625	13392.919922
1690.789063	13541.637695
1689.189453	13462.224609
1687.587891	13496.853516
1685.988281	13520.537109
1684.386719	13717.493164
1682.785156	13686.491211
1681.181641	13870.842773
1679.580078	14095.678711
1677.976563	14061.494141
1676.373047	14164.554688
1674.769531	14267.571289
1673.166016	14208.427734
1671.562500	14496.846680
1669.957031	14556.095703
1668.353516	14782.003906
1666.748047	15059.212891
1665.142578	15369.001953
1663.537109	15275.445313
1661.929688	15496.335938
1660.324219	15673.559570
1658.716797	15804.032227
1657.109375	16161.549805
1655.501953	16156.562500
1653.894531	16577.599609
1652.285156	16939.384766
1650.677734	17075.662109
1649.068359	17225.863281
1647.458984	17445.910156
1645.849609	17833.603516
1644.240234	18059.634766
1642.628906	18474.974609
1641.019531	18759.755859
1639.408203	19193.390625
1637.796875	19595.810547
1636.185547	20095.783203
1634.572266	20463.716797
1632.960938	21081.130859
1631.347656	21451.796875
1629.734375	21546.423828
1628.121094	22298.019531
1626.507813	22739.449219
1624.894531	23042.839844
1623.279297	23281.058594
1621.664063	23910.875000
1620.048828	24428.974609
1618.433594	24541.388672
1616.818359	24929.162109
1615.203125	25426.597656
1613.585938	25585.119141
1611.968750	25994.064453
1610.351563	26082.826172
1608.734375	26366.292969
1607.117188	26716.083984
1605.498047	26775.277344
1603.878906	26982.724609
1602.261719	27012.488281
1600.640625	27238.320313
1599.021484	27241.771484
1597.402344	27634.128906
1595.781250	27932.197266
1594.162109	28253.273438
1592.541016	28657.496094
1590.919922	28680.677734
1589.296875	28831.802734
1587.675781	28608.322266
1586.052734	28640.738281
1584.429688	28828.744141
1582.806641	28708.603516
1581.183594	28810.269531
1579.560547	29008.890625
1577.935547	28933.421875
1576.312500	29056.513672
1574.687500	29202.632813
1573.062500	29294.843750
1571.435547	29390.089844
1569.810547	29425.324219
1568.183594	29578.916016
1566.558594	29203.699219
1564.931641	29151.351563
1563.304688	28928.484375
1561.675781	28919.220703
1560.048828	28524.494141
1558.419922	28701.097656
1556.791016	28662.716797
1555.162109	28750.197266
1553.533203	28498.535156
1551.904297	28630.498047
1550.273438	28305.343750
1548.642578	28273.210938
1547.011719	28308.544922
1545.380859	28146.134766
1543.750000	28163.087891
1542.119141	28155.517578
1540.486328	27890.607422
1538.853516	27899.941406
1537.220703	27938.357422
1535.587891	27959.917969
1533.955078	27950.857422
1532.320313	27753.589844
1530.685547	27686.441406
1529.052734	27564.255859
1527.416016	27133.232422
1525.781250	27509.611328
1524.146484	27308.054688
1522.509766	27329.693359
1520.873047	27143.537109
1519.236328	27036.886719
1517.599609	26977.625000
1515.962891	26710.732422
1514.324219	26312.671875
1512.687500	26078.083984
1511.048828	25485.015625
1509.410156	25206.460938
1507.771484	24755.675781
1506.130859	24427.074219
1504.492188	24261.738281
1502.851563	24119.333984
1501.210938	23848.982422
1499.570313	23391.345703
1497.927734	23406.109375
1496.287109	23058.410156
1494.644531	22689.542969
1493.001953	22482.193359
1491.359375	21958.369141
1489.716797	21868.425781
1488.074219	21801.337891
1486.429688	21814.886719
1484.785156	21411.779297
1483.140625	21325.062500
1481.496094	21150.226563
1479.851563	20887.322266
1478.207031	20837.234375
1476.560547	20785.646484
1474.914063	20746.228516
1473.267578	20514.000000
1471.621094	20586.984375
1469.972656	20382.205078
1468.326172	20365.660156
1466.677734	20414.353516
1465.029297	20218.837891
1463.380859	20479.826172
1461.732422	20510.263672
1460.082031	20567.970703
1458.431641	20957.515625
1456.783203	20813.595703
1455.132813	20912.089844
1453.480469	20831.843750
1451.830078	20959.054688
1450.177734	20765.298828
1448.527344	20271.972656
1446.875000	20129.890625
1445.220703	20065.017578
1443.568359	19903.376953
1441.916016	19741.804688
1440.261719	19486.572266
1438.607422	19099.953125
1436.953125	18905.410156
1435.298828	18904.330078
1433.642578	18815.642578
1431.988281	18634.873047
1430.332031	18451.162109
1428.675781	18374.701172
1427.019531	18381.273438
1425.361328	18155.486328
1423.705078	18205.845703
1422.046875	18277.296875
1420.388672	18122.541016
1418.730469	17943.730469
1417.072266	17757.460938
1415.412109	17770.173828
1413.753906	17718.099609
1412.093750	17655.501953
1410.433594	17534.203125
1408.773438	17855.580078
1407.111328	18018.769531
1405.451172	18076.544922
1403.789063	18004.902344
1402.126953	18193.519531
1400.464844	18439.199219
1398.802734	18295.349609
1397.138672	18277.832031
1395.474609	18270.839844
1393.812500	18018.929688
1392.146484	18178.744141
1390.482422	17929.962891
1388.818359	18361.511719
1387.152344	18073.763672
1385.486328	18267.941406
1383.820313	18456.031250
1382.154297	18382.986328
1380.488281	18405.968750
1378.820313	18260.982422
1377.154297	18334.953125
1375.486328	18399.898438
1373.818359	18133.611328
1372.148438	18171.597656
1370.480469	18179.607422
1368.810547	18287.953125
1367.140625	17882.664063
1365.470703	18154.199219
1363.800781	17984.093750
1362.130859	17893.365234
1360.458984	18052.511719
1358.787109	18048.556641
1357.115234	18074.509766
1355.443359	18095.962891
1353.771484	18223.529297
1352.097656	18509.443359
1350.423828	18902.802734
1348.751953	18889.693359
1347.076172	19288.765625
1345.402344	19701.099609
1343.728516	20044.583984
1342.052734	20372.992188
1340.376953	20749.000000
1338.701172	20798.144531
1337.025391	20768.220703
1335.347656	20841.193359
1333.671875	21088.552734
1331.994141	20809.673828
1330.316406	20523.462891
1328.638672	20496.601563
1326.960938	20295.482422
1325.281250	19932.132813
1323.601563	20036.427734
1321.921875	19665.849609
1320.242188	19959.150391
1318.562500	20023.193359
1316.880859	19978.619141
1315.201172	20081.292969
1313.519531	19843.431641
1311.837891	19700.810547
1310.154297	19610.265625
1308.472656	19640.115234
1306.789063	19304.507813
1305.105469	18814.585938
1303.421875	18749.552734
1301.738281	18408.419922
1300.054688	18163.910156
1298.369141	18165.833984
1296.683594	17940.769531
1294.998047	17592.693359
1293.312500	17658.501953
1291.626953	17524.128906
1289.939453	17324.595703
1288.253906	17498.595703
1286.566406	17145.066406
1284.878906	17079.058594
1283.189453	16894.603516
1281.501953	16858.289063
1279.812500	16703.568359
1278.123047	16836.023438
1276.433594	16829.333984
1274.744141	16500.158203
1273.052734	16662.146484
1271.363281	16492.843750
1269.671875	16172.825195
1267.980469	16172.194336
1266.289063	16112.455078
1264.595703	15853.299805
1262.904297	15935.448242
1261.210938	15747.325195
1259.517578	15621.291016
1257.824219	15338.852539
1256.128906	15435.791992
1254.435547	15209.581055
1252.740234	15237.175781
1251.044922	15086.317383
1249.349609	15068.217773
1247.652344	14809.854492
1245.957031	14852.245117
1244.259766	14993.333008
1242.562500	14655.608398
1240.865234	14776.055664
1239.167969	14525.399414
1237.468750	14881.353516
1235.769531	14850.075195
1234.072266	14596.622070
1232.371094	14733.123047
1230.671875	14354.790039
1228.972656	14433.933594
1227.271484	14164.622070
1225.570313	14286.394531
1223.869141	14227.366211
1222.167969	14024.387695
1220.464844	14288.580078
1218.763672	13922.674805
1217.060547	14153.000977
1215.357422	14094.061523
1213.654297	14021.939453
1211.949219	14012.935547
1210.246094	13757.505859
1208.541016	13736.831055
1206.835938	13679.509766
1205.130859	13633.939453
1203.423828	13715.888672
1201.718750	13843.220703
1200.011719	13772.737305
1198.304688	13601.230469
1196.597656	13852.957031
1194.888672	13593.672852
1193.181641	13515.984375
1191.472656	13428.086914
1189.763672	13485.055664
1188.054688	13427.915039
1186.343750	13318.159180
1184.634766	13310.785156
1182.923828	13132.406250
1181.212891	13429.017578
1179.501953	13335.423828
1177.791016	13395.235352
1176.078125	13325.052734
1174.365234	13487.033203
1172.652344	13275.276367
1170.939453	13262.077148
1169.226563	13213.866211
1167.511719	13234.232422
1165.798828	13326.045898
1164.083984	13320.130859
1162.369141	13150.960938
1160.652344	13204.835938
1158.937500	13163.980469
1157.220703	13043.024414
1155.503906	12882.801758
1153.787109	12926.491211
1152.070313	12744.528320
1150.351563	12556.824219
1148.632813	12504.521484
1146.916016	12437.694336
1145.195313	12160.011719
1143.476563	12350.656250
1141.757813	11869.595703
1140.037109	11781.166016
1138.316406	11453.019531
1136.595703	11478.035156
1134.875000	11428.964844
1133.152344	11221.639648
1131.429688	11226.361328
1129.708984	11138.189453
1127.984375	11128.416016
1126.261719	10892.325195
1124.539063	10940.626953
1122.814453	10856.944336
1121.089844	10739.955078
1119.365234	10638.960938
1117.640625	10558.298828
1115.914063	10486.365234
1114.187500	10472.401367
1112.462891	10458.443359
1110.734375	10492.267578
1109.007813	10269.872070
1107.281250	10323.981445
1105.552734	10252.192383
1103.824219	10174.648438
1102.095703	10147.754883
1100.367188	9990.746094
1098.636719	9836.699219
1096.908203	9898.053711
1095.177734	9891.470703
1093.447266	9795.329102
1091.714844	9697.786133
1089.984375	9637.827148
1088.251953	9752.562500
1086.519531	9593.034180
1084.787109	9598.066406
1083.054688	9715.615234
1081.320313	9851.858398
1079.585938	10001.014648
1077.851563	9961.256836
1076.117188	10018.079102
1074.382813	9914.933594
1072.648438	9899.708984
1070.912109	9973.787109
1069.175781	9925.435547
1067.439453	9895.820313
1065.701172	9952.574219
1063.964844	9981.959961
1062.226563	10126.421875
1060.488281	9914.121094
1058.750000	9831.332031
1057.011719	9666.634766
1055.271484	9550.880859
1053.531250	9482.598633
1051.791016	9381.302734
1050.050781	9259.945313
1048.310547	9242.032227
1046.568359	9090.610352
1044.826172	9247.853516
1043.083984	9080.712891
1041.341797	9097.286133
1039.599609	9128.194336
1037.855469	9054.404297
1036.113281	8994.983398
1034.369141	9154.894531
1032.623047	8953.605469
1030.878906	9018.891602
1029.132813	8903.666992
1027.386719	8877.281250
1025.640625	8981.193359
1023.894531	8950.506836
1022.148438	8884.055664
1020.400391	8777.574219
1018.652344	8857.092773
1016.904297	8892.242188
1015.156250	8925.945313
1013.406250	8859.571289
1011.658203	8934.708008
1009.908203	8989.805664
1008.158203	8889.178711
1006.408203	8922.837891
1004.656250	9032.154297
1002.904297	8861.637695
1001.152344	9069.387695
999.400391	9114.385742
997.648438	8931.126953
995.896484	8773.623047
994.142578	8771.603516
992.388672	8833.730469
990.634766	8830.271484
988.878906	8775.518555
987.125000	8719.366211
985.369141	8831.291016
983.613281	8807.897461
981.857422	8885.583984
980.099609	8803.836914
978.343750	8904.252930
976.585938	8893.663086
974.828125	8996.854492
973.070313	8962.075195
971.310547	8996.966797
969.552734	8879.770508
967.792969	8992.812500
966.033203	8774.809570
964.273438	8904.864258
962.511719	8765.076172
960.750000	9147.754883
958.990234	9006.554688
957.226563	9126.499023
955.464844	9094.597656
953.703125	9001.725586
951.939453	9030.836914
950.175781	8950.778320
948.412109	9005.398438
946.648438	8820.526367
944.882813	8716.487305
943.117188	8714.467773
941.351563	8739.352539
939.585938	8765.640625
937.820313	8716.903320
936.052734	8775.727539
934.285156	8707.204102
932.517578	8545.365234
930.750000	8509.447266
928.982422	8580.984375
927.212891	8573.339844
925.443359	8552.980469
923.673828	8621.628906
921.904297	8705.781250
920.132813	8675.518555
918.361328	8761.029297
916.591797	8806.980469
914.818359	8545.301758
913.046875	8455.850586
911.275391	8383.365234
909.501953	8389.875977
907.728516	8389.334961
905.955078	8362.013672
904.179688	8460.113281
902.406250	8437.012695
900.630859	8450.541992
898.855469	8202.157227
897.080078	8353.694336
895.302734	8317.970703
893.525391	8313.218750
891.750000	8238.128906
889.970703	8281.215820
888.193359	8298.971680
886.416016	8100.224609
884.636719	8047.738770
882.857422	7864.598145
881.078125	7983.577637
879.296875	7858.120117
877.517578	7982.660645
875.736328	7837.606445
873.955078	7809.110352
872.173828	7738.531250
870.390625	7763.377930
868.609375	7694.243652
866.826172	7733.109863
865.042969	7771.957031
863.259766	7768.738770
861.474609	7722.083984
859.689453	7815.538574
857.904297	7714.271484
856.119141	7726.469238
854.333984	7740.061035
852.546875	7767.641113
850.761719	7715.450195
848.974609	7698.256348
847.185547	7770.579102
845.398438	7791.131836
843.609375	7789.307129
841.822266	7614.179199
840.031250	7633.354492
838.242188	7709.795410
836.453125	7731.730957
834.662109	7855.585449
832.871094	7906.790527
831.080078	7844.923828
829.289063	7886.338867
827.496094	7870.538574
825.703125	7910.532227
823.910156	7926.802246
822.117188	7887.303223
820.324219	8017.851563
818.529297	8020.148926
816.734375	8029.409668
814.939453	7868.756348
813.144531	7964.373535
811.347656	7924.916992
809.550781	7849.293945
807.755859	7622.043457
805.957031	7499.229004
804.160156	7480.776855
802.361328	7456.770996
800.564453	7468.917969
798.765625	7435.196777
796.964844	7451.509766
795.166016	7381.690430
793.365234	7392.452148
791.564453	7430.977051
789.763672	7447.272949
787.962891	7549.604004
786.160156	7531.176270
784.359375	7586.274902
782.556641	7391.720215
780.751953	7373.340820
778.949219	7314.770508
777.144531	7412.826172
775.339844	7339.032227
773.535156	7288.820313
771.730469	7353.574707
769.925781	7421.066406
768.119141	7412.395020
766.312500	7306.855469
764.505859	7475.307617
762.697266	7494.291504
760.890625	7535.392090
759.082031	7575.090332
757.273438	7585.741699
755.464844	7749.779785
753.654297	8101.636230
751.845703	8244.754883
750.035156	8583.898438
748.224609	9040.231445
746.412109	9543.279297
744.601563	9932.930664
742.789063	10345.851563
740.976563	10559.956055
739.164063	11077.333008
737.349609	11963.944336
735.537109	12855.647461
733.722656	14156.194336
731.908203	14694.270508
730.091797	14307.889648
728.277344	13142.296875
726.460938	11630.327148
724.644531	10467.292969
722.828125	9366.731445
721.009766	8781.208984
719.193359	8299.117188
717.375000	7949.258789
715.556641	7697.172363
713.736328	7578.523438
711.917969	7480.541016
710.097656	7426.564941
708.277344	7445.405762
706.457031	7436.774902
704.636719	7450.112305
702.814453	7356.390137
700.992188	7324.458496
699.169922	7289.797363
697.347656	7353.898926
695.523438	7265.770996
693.699219	7358.634277
691.875000	7717.331543
690.050781	7441.462891
688.226563	7657.503418
686.400391	7680.336914
684.574219	7597.729492
682.748047	7511.054688
680.921875	7386.100098
679.095703	7497.908691
677.267578	7463.297363
675.439453	7454.686035
673.611328	7264.232910
671.781250	7313.083008
669.953125	7509.502441
668.123047	7324.635254
666.292969	7406.217285
664.460938	7363.487305
662.630859	7483.248047
660.798828	7531.972656
658.966797	7505.617188
657.134766	7477.909180
655.302734	7589.342285
653.468750	7729.359375
651.634766	7535.286621
649.800781	7618.000977
647.966797	7707.489258
646.130859	7604.837891
644.294922	7818.232422
642.458984	7824.541504
640.623047	7912.531250
638.787109	7958.284668
636.949219	7693.761719
635.111328	7934.086914
633.273438	7736.339844
631.435547	7748.094238
629.595703	7640.209473
627.757813	7707.705078
625.917969	7671.897461
624.076172	7671.427246
622.236328	7715.775879
620.394531	7574.078125
618.552734	7336.062988
616.710938	7259.667480
614.869141	7377.340820
613.025391	7151.750000
611.183594	7113.425781
609.339844	7083.254883
607.494141	7034.119629
605.650391	6947.059570
603.804688	6868.170410
601.958984	7052.113281
600.113281	7003.030273
598.267578	6947.200195
596.419922	6979.382813
594.572266	6882.983887
592.724609	6985.521484
590.876953	6970.326660
589.027344	6896.987793
587.179688	6804.754395
585.330078	6901.803711
583.480469	6670.420410
581.628906	6853.921875
579.779297	6713.158691
577.927734	6712.905273
576.076172	6854.411133
574.222656	7037.691406
572.371094	6948.295898
570.517578	7045.121094
568.664063	7164.829102
566.810547	7149.631836
564.955078	7182.975098
563.101563	7111.170410
561.246094	7116.208008
559.390625	6997.300781
557.533203	6996.974609
555.677734	6907.775879
553.820313	6941.125977
551.962891	6842.561035
550.105469	6731.932617
548.246094	6630.773438
546.386719	6576.734863
544.527344	6623.567383
542.667969	6425.716309
540.808594	6433.586914
538.947266	6505.948242
537.085938	6560.811035
535.224609	6553.869141
533.363281	6581.839844
531.500000	6377.567871
529.638672	6469.984375
527.775391	6440.259766
525.910156	6576.882324
524.046875	6544.463379
522.181641	6876.745117
520.316406	7220.931641
518.451172	7113.333496
516.585938	6814.196289
514.718750	6606.285645
512.851563	6521.676270
510.984375	6437.106934
509.117188	6495.798828
507.250000	6530.374512
505.380859	6606.406738
503.511719	6496.483398
501.642578	6476.206055
499.771484	6411.820313
497.902344	6442.362793
496.031250	6476.898926
494.160156	6250.907715
492.287109	6419.035156
490.416016	6193.165527
488.542969	6237.071777
486.669922	6120.795898
484.796875	6212.733887
482.921875	6195.237305
481.046875	6159.076172
479.171875	6128.266113
477.296875	6154.791992
475.421875	6177.307129
473.544922	6198.478027
471.667969	6231.627930
469.791016	6346.000488
467.914063	6289.889648
466.035156	6291.044434
464.156250	6369.387207
462.277344	6198.884766
460.398438	6048.416992
458.519531	6142.718750
456.638672	6100.030273
454.757813	6180.981445
452.876953	6111.725098
450.994141	6221.863281
449.113281	6156.614258
447.230469	6115.299316
445.347656	6168.267578
443.462891	6149.533691
441.580078	6152.041016
439.695313	6179.753906
437.810547	6165.008789
435.925781	6212.595703
434.039063	6122.281738
432.152344	6199.014648
430.267578	6275.709961
428.378906	6361.642090
426.492188	6129.659180
424.603516	6269.874512
422.714844	6325.296875
420.826172	6333.045410
418.937500	6354.021973
417.046875	6253.282715
415.158203	6201.526367
413.265625	6223.840820
411.375000	6231.602539
409.484375	6195.747070
407.591797	6074.023926
405.699219	6157.111328
403.806641	6044.699707
401.912109	6065.697266
400.019531	6093.284180
