#Wave		#Intensity
1585.210938	12543.177734
1584.209961	12460.754883
1583.208984	12705.389648
1582.208008	12650.328125
1581.206055	12383.121094
1580.204102	12647.583008
1579.202148	12689.874023
1578.200195	12579.979492
1577.198242	12629.748047
1576.195313	12529.884766
1575.192383	12584.628906
1574.189453	12449.920898
1573.186523	12584.399414
1572.182617	12649.062500
1571.178711	12569.223633
1570.174805	12544.207031
1569.170898	12446.992188
1568.166992	12287.583984
1567.162109	12603.614258
1566.158203	12434.284180
1565.153320	12628.248047
1564.147461	12662.943359
1563.142578	12645.400391
1562.136719	12503.548828
1561.130859	12610.333984
1560.125000	12997.909180
1559.119141	12846.132813
1558.113281	13238.464844
1557.106445	13161.212891
1556.099609	13359.626953
1555.092773	13620.025391
1554.084961	13651.956055
1553.078125	13666.500977
1552.070313	13852.238281
1551.062500	13695.571289
1550.054688	13610.891602
1549.045898	13617.992188
1548.038086	13439.157227
1547.029297	13384.324219
1546.020508	13113.921875
1545.011719	13103.774414
1544.001953	13046.566406
1542.992188	12942.328125
1541.982422	12865.368164
1540.972656	12798.340820
1539.962891	12600.166992
1538.952148	12765.823242
1537.942383	12654.325195
1536.931641	12443.935547
1535.919922	12557.586914
1534.909180	12290.437500
1533.897461	12329.916016
1532.886719	12216.149414
1531.874023	12285.276367
1530.862305	12418.603516
1529.850586	12213.502930
1528.837891	12334.442383
1527.825195	12302.261719
1526.812500	12465.092773
1525.799805	12178.712891
1524.786133	12326.697266
1523.772461	12116.932617
1522.758789	12136.621094
1521.745117	12136.573242
1520.731445	12217.878906
1519.716797	12252.320313
1518.702148	12380.388672
1517.687500	12111.741211
1516.672852	11976.218750
1515.657227	12202.771484
1514.642578	12315.967773
1513.626953	12365.113281
1512.610352	12330.556641
1511.594727	12236.958008
1510.579102	12047.450195
1509.562500	12190.075195
1508.545898	12280.998047
1507.529297	12327.626953
1506.511719	12189.876953
1505.494141	12207.012695
1504.477539	12280.654297
1503.458984	12418.136719
1502.441406	12241.181641
1501.423828	12440.003906
1500.405273	12425.151367
1499.386719	12373.486328
1498.368164	12547.614258
1497.348633	12537.654297
1496.330078	12743.565430
1495.310547	12647.728516
1494.291016	12331.248047
1493.271484	12448.817383
1492.250977	12576.141602
1491.231445	12669.104492
1490.210938	12786.529297
1489.190430	12524.233398
1488.168945	12428.576172
1487.148438	12472.521484
1486.126953	12386.705078
1485.105469	12494.273438
1484.083984	12711.909180
1483.061523	12572.273438
1482.040039	12635.707031
1481.017578	12510.816406
1479.995117	12826.061523
1478.971680	12820.958008
1477.949219	12950.270508
1476.925781	12998.897461
1475.902344	12790.998047
1474.878906	13044.796875
1473.855469	12910.229492
1472.831055	12953.938477
1471.806641	13385.726563
1470.782227	13490.326172
1469.757813	13460.689453
1468.733398	13540.834961
1467.708008	13816.053711
1466.682617	14239.897461
1465.657227	14590.428711
1464.631836	14714.142578
1463.605469	15110.727539
1462.579102	15287.879883
1461.552734	15443.034180
1460.526367	15585.948242
1459.500000	15395.233398
1458.472656	15465.067383
1457.445313	15091.920898
1456.417969	15147.187500
1455.390625	14798.587891
1454.362305	14489.049805
1453.334961	14369.316406
1452.306641	14064.856445
1451.277344	14069.228516
1450.249023	13784.397461
1449.219727	13817.980469
1448.191406	13389.993164
1447.162109	13503.791992
1446.131836	13270.304688
1445.102539	13129.166992
1444.072266	13206.538086
1443.041992	13150.406250
1442.011719	13101.576172
1440.981445	13023.656250
1439.950195	12797.831055
1438.918945	12858.213867
1437.887695	12971.903320
1436.856445	12935.275391
1435.825195	12922.893555
1434.792969	12692.474609
1433.760742	12718.902344
1432.728516	12735.630859
1431.696289	12752.352539
1430.663086	12541.522461
1429.629883	12529.233398
1428.596680	12635.512695
1427.563477	12470.800781
1426.530273	12540.766602
1425.496094	12414.832031
1424.461914	12243.013672
1423.427734	12240.465820
1422.393555	12298.334961
1421.358398	12225.708008
1420.323242	12256.982422
1419.288086	12314.810547
1418.252930	12273.612305
1417.217773	12116.552734
1416.181641	12217.817383
1415.145508	12444.520508
1414.109375	12215.142578
1413.073242	12169.180664
1412.036133	12267.934570
1411.000000	12535.425781
1409.962891	12605.132813
1408.924805	12696.501953
1407.887695	12963.733398
1406.849609	12965.851563
1405.812500	13252.182617
1404.773438	13401.132813
1403.735352	13588.541016
1402.697266	13773.462891
1401.658203	13984.779297
1400.619141	14022.768555
1399.580078	14012.627930
1398.540039	14156.416992
1397.500977	14078.922852
1396.460938	14131.281250
1395.420898	14399.940430
1394.380859	14012.441406
1393.339844	13692.375977
1392.298828	13783.201172
1391.257813	13859.578125
1390.216797	13590.165039
1389.175781	13563.323242
1388.133789	13553.291992
1387.091797	13495.272461
1386.049805	13919.493164
1385.007813	13911.790039
1383.964844	13877.709961
1382.922852	14128.956055
1381.879883	14468.788086
1380.835938	14518.491211
1379.792969	14687.976563
1378.749023	14831.038086
1377.706055	15067.448242
1376.661133	15255.866211
1375.617188	15211.978516
1374.573242	15405.073242
1373.528320	15392.280273
1372.483398	15257.471680
1371.438477	15383.454102
1370.392578	15098.031250
1369.347656	14774.469727
1368.301758	14809.628906
1367.255859	14448.020508
1366.208984	14674.397461
1365.163086	14434.808594
1364.116211	14197.708008
1363.069336	14063.392578
1362.022461	14155.953125
1360.974609	13990.668945
1359.927734	13892.277344
1358.879883	13708.027344
1357.832031	13965.185547
1356.783203	13790.535156
1355.735352	13875.876953
1354.686523	13949.261719
1353.637695	13870.064453
1352.588867	14203.173828
1351.539063	14269.292969
1350.490234	14206.750977
1349.440430	14942.064453
1348.390625	15048.462891
1347.339844	15419.060547
1346.290039	15511.032227
1345.239258	15817.125977
1344.188477	16306.281250
1343.137695	16526.449219
1342.085938	16936.771484
1341.034180	17468.175781
1339.982422	17407.460938
1338.930664	17741.285156
1337.878906	17656.775391
1336.826172	18016.535156
1335.773438	17913.000000
1334.720703	18058.839844
1333.667969	17855.623047
1332.614258	17771.171875
1331.561523	17563.351563
1330.507813	17175.300781
1329.453125	17112.390625
1328.399414	16800.486328
1327.344727	16476.855469
1326.290039	16335.897461
1325.235352	15962.725586
1324.180664	15748.474609
1323.125000	15676.458984
1322.070313	15306.027344
1321.014648	15350.170898
1319.958008	15264.075195
1318.902344	15161.445313
1317.845703	14886.093750
1316.789063	14873.497070
1315.732422	14863.270508
1314.675781	14725.330078
1313.618164	14464.485352
1312.560547	14477.989258
1311.502930	14252.758789
1310.445313	13883.469727
1309.386719	13807.303711
1308.329102	13839.828125
1307.270508	13513.366211
1306.210938	13586.076172
1305.152344	13417.967773
1304.092773	13290.051758
1303.033203	13320.285156
1301.973633	13208.956055
1300.914063	13199.094727
1299.853516	12910.973633
1298.792969	13125.156250
1297.732422	13051.672852
1296.671875	12839.175781
1295.611328	12876.521484
1294.549805	12760.731445
1293.488281	12798.077148
1292.426758	12844.824219
1291.364258	12703.214844
1290.302734	12561.665039
1289.240234	12589.603516
1288.177734	12961.024414
1287.114258	12683.079102
1286.051758	12788.578125
1284.988281	12816.441406
1283.924805	12773.771484
1282.861328	13163.557617
1281.796875	13207.769531
1280.732422	13550.312500
1279.667969	13655.488281
1278.603516	13725.395508
1277.539063	13776.491211
1276.473633	14273.538086
1275.408203	14523.965820
1274.342773	14443.465820
1273.277344	14555.350586
1272.210938	14495.984375
1271.145508	14345.196289
1270.079102	14555.486328
1269.011719	14179.746094
1267.945313	13993.967773
1266.877930	13733.299805
1265.810547	13388.417969
1264.743164	13317.669922
1263.674805	12996.433594
1262.607422	13017.086914
1261.539063	12541.589844
1260.470703	12581.046875
1259.401367	12377.200195
1258.333008	12318.443359
1257.263672	12315.830078
1256.194336	12020.992188
1255.125000	12048.826172
1254.054688	11856.987305
1252.985352	11989.977539
1251.915039	11943.050781
1250.843750	11835.425781
1249.773438	11786.215820
1248.702148	11685.670898
1247.630859	11774.208008
1246.559570	11783.373047
1245.488281	11794.866211
1244.416016	11734.050781
1243.343750	11621.959961
1242.271484	11743.050781
1241.199219	11735.892578
1240.125977	11728.735352
1239.053711	11765.848633
1237.980469	11576.996094
1236.906250	11730.567383
1235.833008	12028.432617
1234.758789	11841.969727
1233.684570	11825.484375
1232.610352	11706.622070
1231.536133	11892.568359
1230.460938	11601.623047
1229.385742	11647.985352
1228.310547	11738.500000
1227.235352	11975.414063
1226.159180	11563.851563
1225.083008	11652.000000
1224.006836	11754.048828
1222.930664	11693.481445
1221.853516	11825.660156
1220.777344	11774.387695
1219.700195	11653.507813
1218.622070	11729.916992
1217.544922	11806.291992
1216.466797	11604.297852
1215.388672	11699.217773
1214.310547	11488.057617
1213.232422	11817.075195
1212.153320	11663.915039
1211.074219	11934.829102
1209.995117	11869.733398
1208.916016	11644.861328
1207.835938	11843.821289
1206.755859	11727.854492
1205.675781	11709.145508
1204.595703	11801.516602
1203.514648	11801.305664
1202.434570	11798.781250
1201.353516	11736.131836
1200.271484	11886.214844
1199.190430	11590.104492
1198.108398	11613.045898
1197.026367	11619.801758
1195.944336	11550.322266
1194.862305	11497.038086
1193.779297	11418.375977
1192.696289	11413.621094
1191.613281	11279.614258
1190.530273	11346.424805
1189.446289	11295.543945
1188.362305	11115.514648
1187.278320	11057.784180
1186.194336	11106.136719
1185.109375	11013.854492
1184.024414	10970.008789
1182.939453	10949.221680
1181.854492	11138.074219
1180.768555	10909.975586
1179.683594	10840.856445
1178.597656	10886.874023
1177.510742	11043.350586
1176.424805	10780.947266
1175.337891	10955.783203
1174.250977	10905.125000
1173.164063	10987.870117
1172.077148	10964.815430
1170.989258	10902.692383
1169.901367	10875.068359
1168.813477	10840.561523
1167.724609	11008.223633
1166.636719	10737.139648
1165.547852	10822.085938
1164.458984	10948.317383
1163.369141	10895.465820
1162.280273	10952.783203
1161.190430	10934.365234
1160.100586	10851.729492
1159.010742	11113.116211
1157.919922	10835.590820
1156.829102	11025.806641
1155.738281	10860.714844
1154.647461	11041.675781
1153.555664	11037.004883
1152.464844	11078.140625
1151.373047	11279.542969
1150.280273	11224.456055
1149.188477	11130.482422
1148.095703	11324.875977
1147.002930	11166.859375
1145.910156	11306.263672
1144.817383	11223.783203
1143.723633	11107.042969
1142.629883	11234.937500
1141.536133	11198.230469
1140.441406	11097.561523
1139.347656	10996.935547
1138.252930	11015.114258
1137.158203	10969.348633
1136.062500	10976.108398
1134.967773	11026.230469
1133.872070	10912.032227
1132.776367	10895.983398
1131.679688	10916.434570
1130.583984	10893.548828
1129.487305	10870.671875
1128.390625	11023.319336
1127.292969	10879.638672
1126.196289	11007.153320
1125.098633	10829.367188
1124.000977	10644.825195
1122.903320	10817.844727
1121.804688	10672.083008
1120.706055	10804.051758
1119.607422	10892.728516
1118.508789	10849.416992
1117.409180	10740.163086
1116.310547	10701.449219
1115.210938	10740.050781
1114.110352	10601.338867
1113.010742	10624.036133
1111.910156	10833.028320
1110.809570	10930.624023
1109.708984	10787.446289
1108.607422	10766.938477
1107.506836	10907.613281
1106.405273	10753.182617
1105.303711	10741.769531
1104.201172	10630.542969
1103.098633	10521.631836
1101.996094	10705.286133
1100.893555	10507.988281
1099.791016	10770.895508
1098.687500	10541.940430
1097.583984	10646.130859
1096.480469	10548.678711
1095.376953	10349.359375
1094.272461	10435.408203
1093.167969	10738.727539
1092.063477	10439.916016
1090.958008	10455.743164
1089.853516	10442.154297
1088.748047	10543.916016
1087.642578	10417.252930
1086.536133	10557.405273
1085.430664	10405.930664
1084.324219	10410.440430
1083.217773	10473.686523
1082.110352	10545.939453
1081.003906	10403.627930
1079.896484	10572.945313
1078.789063	10633.839844
1077.680664	10426.155273
1076.573242	10489.309570
1075.464844	10581.760742
1074.356445	10631.320313
1073.247070	10399.010742
1072.138672	10534.249023
1071.029297	10335.867188
1069.919922	10367.407227
1068.809570	10407.943359
1067.700195	10455.218750
1066.589844	10437.168945
1065.479492	10459.650391
1064.368164	10443.856445
1063.257813	10538.335938
1062.146484	10610.274414
1061.035156	10569.711914
1059.922852	10592.134766
1058.811523	10394.207031
1057.699219	10418.905273
1056.586914	10484.043945
1055.473633	10391.871094
1054.361328	10450.246094
1053.248047	10387.316406
1052.134766	10117.833984
1051.021484	10385.005859
1049.907227	10288.461914
1048.792969	10301.913086
1047.678711	10212.158203
1046.564453	10481.314453
1045.449219	10532.833008
1044.333984	10492.407227
1043.218750	10487.861328
1042.103516	10507.968750
1040.987305	10460.850586
1039.871094	10521.272461
1038.754883	10476.409180
1037.638672	10545.755859
1036.521484	10368.833008
1035.404297	10451.598633
1034.287109	10433.636719
1033.169922	10561.090820
1032.051758	10467.069336
1030.933594	10540.791992
1029.815430	10500.467773
1028.697266	10609.910156
1027.578125	10509.252930
1026.458984	10667.793945
1025.339844	10640.875000
1024.220703	10562.605469
1023.100586	10558.045898
1021.980469	10727.592773
1020.860352	10702.912109
1019.740234	10749.638672
1018.619141	10753.959961
1017.498047	10686.914063
1016.376953	10510.643555
1015.255859	10575.200195
1014.133789	10472.576172
1013.011719	10644.064453
1011.889648	10610.527344
1010.767578	10654.956055
1009.644531	10661.510742
1008.521484	10483.284180
1007.398438	10445.357422
1006.274414	10583.240234
1005.151367	10620.947266
1004.027344	10571.890625
1002.902344	10542.868164
1001.778320	10696.166992
1000.653320	10544.875977
999.528320	10649.212891
998.403320	10549.098633
997.278320	10526.773438
996.152344	10337.895508
995.026367	10566.520508
993.900391	10455.410156
992.773438	10406.489258
991.646484	10288.804688
990.519531	10326.456055
989.392578	10528.212891
988.265625	10390.620117
987.137695	10388.317383
986.009766	10609.871094
984.881836	10461.269531
983.752930	10505.473633
982.624023	10359.173828
981.495117	10452.096680
980.366211	10434.280273
979.236328	10462.953125
978.106445	10531.446289
976.976563	10316.711914
975.846680	10252.486328
974.715820	10307.708984
973.585938	10212.557617
972.454102	10453.444336
971.323242	10424.601563
970.191406	10227.848633
969.060547	10322.772461
967.927734	10386.733398
966.795898	10357.927734
965.663086	10346.794922
964.530273	10410.705078
963.397461	10545.197266
962.264648	10379.600586
961.130859	10507.420898
959.997070	10588.875977
958.863281	10372.671875
957.729492	10769.307617
956.594727	10617.063477
955.459961	10528.776367
954.325195	10718.061523
953.189453	10625.384766
952.053711	10603.202148
950.917969	10431.348633
949.782227	10360.802734
948.646484	10200.079102
947.509766	10134.012695
946.373047	10364.869141
945.235352	10364.755859
944.098633	10305.289063
942.960938	10397.492188
941.823242	10331.451172
940.685547	10430.196289
939.546875	10550.858398
938.408203	10533.131836
937.269531	10401.256836
936.129883	10719.374023
934.991211	10673.092773
933.851563	10780.398438
932.711914	10543.302734
931.571289	10659.359375
930.431641	10652.590820
929.291016	10573.494141
928.149414	10542.641602
927.008789	10625.727539
925.867188	10568.590820
924.725586	10465.490234
923.583984	10572.618164
922.441406	10213.458984
921.299805	10550.377930
920.157227	10351.101563
919.013672	10261.285156
917.871094	10337.716797
916.727539	10252.315430
915.583984	10090.442383
914.439453	10079.438477
913.295898	10254.163086
912.151367	9989.724609
911.006836	10007.140625
909.861328	9985.244141
908.716797	9886.951172
907.571289	10164.098633
906.424805	9915.246094
905.279297	10152.992188
904.132813	10028.573242
902.986328	10216.032227
901.839844	10139.615234
900.692383	10061.051758
899.545898	9969.448242
898.398438	10021.674805
897.250000	10187.139648
896.102539	9999.750000
894.954102	10043.222656
893.805664	9956.075195
892.656250	10084.407227
891.507813	10082.139648
890.358398	10040.717773
889.208984	10164.592773
888.058594	10036.200195
886.908203	9901.344727
885.758789	9966.486328
884.607422	9883.851563
883.457031	9966.344727
882.305664	9927.179688
881.154297	9662.218750
880.002930	9801.143555
878.850586	9807.617188
877.698242	9653.519531
876.545898	9735.948242
875.393555	9907.260742
874.240234	9740.232422
873.086914	9601.460938
871.933594	9874.552734
870.780273	9675.138672
869.625977	9601.465820
868.471680	9696.764648
867.317383	9779.028320
866.162109	9865.583008
865.007813	9774.614258
863.852539	9729.127930
862.696289	9670.681641
861.541016	9791.787109
860.384766	9770.113281
859.228516	9579.812500
858.072266	9674.915039
856.915039	9999.042969
855.757813	9694.308594
854.600586	9787.159180
853.442383	9867.009766
852.285156	9597.053711
851.126953	9614.310547
849.968750	9737.305664
848.809570	9700.581055
847.650391	9702.700195
846.491211	9954.986328
845.332031	9743.587891
844.171875	9778.028320
843.012695	9622.797852
841.851563	9678.794922
840.691406	9780.003906
839.530273	9553.804688
838.369141	9691.598633
837.208008	9691.555664
836.046875	9596.813477
834.884766	9581.727539
833.722656	9577.404297
832.560547	9547.273438
831.397461	9628.968750
830.234375	9439.752930
829.071289	9633.199219
827.908203	9566.548828
826.744141	9502.077148
825.580078	9581.539063
824.416016	9624.458984
823.251953	9598.658203
822.086914	9529.941406
820.921875	9534.215820
819.756836	9508.451172
818.590820	9645.710938
817.425781	9660.675781
816.259766	9619.889648
815.092773	9501.957031
813.926758	9654.091797
812.759766	9525.490234
811.592773	9649.703125
810.424805	9583.263672
809.257813	9497.584961
808.089844	9349.868164
806.920898	9482.564453
805.752930	9484.686523
804.583984	9424.773438
803.415039	9446.153320
802.246094	9426.898438
801.076172	9217.404297
799.906250	9563.658203
798.736328	9392.685547
797.566406	9426.861328
796.395508	9505.870117
795.224609	9495.164063
794.053711	9469.519531
792.881836	9623.159180
791.710938	9591.093750
790.538086	9765.966797
789.366211	9520.607422
788.194336	9460.865234
787.021484	9505.607422
785.848633	9759.195313
784.674805	9526.841797
783.500977	9582.187500
782.327148	9556.573242
781.153320	9658.731445
779.979492	9471.316406
778.804688	9484.053711
777.629883	9603.178711
776.454102	9500.998047
775.279297	9407.371094
774.103516	9486.027344
772.927734	9458.349609
771.750977	9496.573242
770.575195	9426.405273
769.398438	9434.874023
768.220703	9377.494141
767.043945	9579.208984
765.866211	9360.469727
764.688477	9521.766602
763.510742	9538.688477
762.332031	9530.142578
761.153320	9542.810547
759.974609	9591.523438
758.794922	9684.735352
757.616211	9546.862305
756.436523	9777.785156
755.255859	9705.631836
754.076172	9959.710938
752.895508	10063.316406
751.714844	10192.280273
750.533203	10338.118164
749.352539	10640.491211
748.170898	10961.766602
746.988281	11354.812500
745.806641	11849.188477
744.624023	12871.914063
743.441406	14031.568359
742.258789	15602.791992
741.075195	17555.720703
739.891602	19372.562500
738.708008	21594.050781
737.523438	23003.742188
736.339844	23838.613281
735.155273	24229.908203
733.969727	23905.750000
732.785156	23311.724609
731.599609	21941.865234
730.414063	20155.150391
729.227539	18434.599609
728.041992	16784.388672
726.855469	15280.317383
725.667969	13869.625000
724.481445	12870.264648
723.293945	12256.686523
722.106445	11517.082031
720.918945	11274.509766
719.730469	10800.591797
718.541992	10501.494141
717.353516	10126.819336
716.164063	10002.536133
714.975586	10027.566406
713.786133	9697.392578
712.595703	9524.962891
711.406250	9438.743164
710.215820	9541.587891
709.025391	9417.606445
707.833984	9180.317383
706.642578	9264.258789
705.451172	9184.489258
704.259766	9400.555664
703.068359	9238.992188
701.875977	9190.735352
700.683594	9362.624023
699.490234	9412.868164
698.297852	9337.361328
697.104492	9362.447266
695.910156	9328.875000
694.716797	9542.411133
693.522461	9284.803711
692.328125	9427.086914
691.132813	9443.750000
689.938477	9412.286133
688.743164	9408.026367
687.547852	9571.058594
686.351563	9541.675781
685.155273	9495.584961
683.958984	9416.079102
682.762695	9432.711914
681.565430	9507.821289
680.368164	9417.924805
679.170898	9236.207031
677.973633	9363.489258
676.775391	9382.199219
675.577148	9486.437500
674.378906	9384.130859
673.179688	9359.028320
671.980469	9361.040039
670.781250	9344.290039
669.581055	9446.330078
668.381836	9314.979492
667.181641	9400.314453
665.980469	9198.229492
664.780273	9431.371094
663.579102	9281.408203
662.377930	9558.123047
661.175781	9524.708984
659.973633	9826.199219
658.771484	9830.169922
657.569336	9877.798828
656.367188	10035.572266
655.164063	10153.787109
653.960938	9976.919922
652.756836	10358.893555
651.552734	10194.518555
650.348633	10291.823242
649.144531	10349.642578
647.939453	10509.122070
646.735352	10440.300781
645.529297	10344.545898
644.324219	10389.853516
643.118164	10553.320313
641.912109	10409.926758
640.706055	10536.008789
639.499023	10481.775391
638.292969	10357.138672
637.084961	10201.494141
635.877930	10228.122070
634.669922	10248.527344
633.461914	10306.173828
632.253906	10413.449219
631.044922	10096.621094
629.836914	10069.468750
628.626953	10187.060547
627.417969	10085.482422
626.208008	10008.750977
624.998047	9733.702148
623.788086	9650.887695
622.577148	9756.045898
621.366211	9611.322266
620.155273	9543.041992
618.944336	9489.239258
617.732422	9400.384766
616.520508	9350.764648
615.308594	9377.472656
614.095703	9284.580078
612.882813	9138.133789
611.669922	9125.713867
610.457031	9002.035156
609.243164	9253.325195
608.029297	9034.937500
606.815430	9024.609375
605.600586	8964.880859
604.385742	8884.598633
603.170898	8944.268555
601.955078	9059.451172
600.740234	9010.050781
599.524414	8958.616211
598.307617	8845.534180
597.091797	9122.991211
595.875000	8911.296875
594.658203	8974.967773
593.440430	8946.189453
592.222656	9032.407227
591.004883	8915.357422
589.787109	8822.988281
588.568359	9030.233398
587.349609	9013.780273
586.130859	8935.807617
584.912109	9017.803711
583.692383	9155.110352
582.472656	8982.881836
581.251953	9095.542969
580.032227	9169.230469
578.811523	9189.632813
577.589844	9195.692383
576.369141	9334.810547
575.147461	9261.014648
573.925781	9283.420898
572.703125	9316.043945
571.481445	9248.437500
570.258789	9489.616211
569.035156	9325.917969
567.812500	9321.710938
566.588867	9454.408203
565.365234	9705.526367
564.140625	9409.174805
562.916992	9380.447266
561.692383	9288.449219
560.466797	9404.668945
559.242188	9341.273438
558.016602	9355.425781
556.791016	9457.270508
555.564453	9402.061523
554.337891	9196.021484
553.111328	9155.164063
551.884766	9246.770508
550.657227	9197.770508
549.429688	9260.809570
548.202148	9105.944336
546.974609	9124.188477
545.746094	9284.892578
544.517578	9335.642578
543.288086	9260.240234
542.058594	9233.684570
540.829102	9369.810547
539.599609	9316.813477
538.370117	9292.293945
537.139648	9438.469727
535.909180	9220.941406
534.677734	9137.559570
533.446289	9159.804688
532.214844	9238.881836
530.983398	9157.582031
529.750977	9169.660156
528.519531	9202.018555
527.286133	9023.429688
526.053711	9207.884766
524.820313	9173.311523
523.586914	9173.208008
522.353516	9223.762695
521.119141	9308.732422
519.884766	9079.729492
518.650391	9237.587891
517.415039	9085.635742
516.179688	9101.741211
514.944336	8966.078125
513.708984	9083.354492
