#Wave		#Intensity
2109.224609	4035.680664
2107.712891	4060.490234
2106.201172	4033.154297
2104.687500	4067.000488
2103.175781	4087.609131
2101.662109	4085.073242
2100.150391	4036.277344
2098.636719	4076.701172
2097.123047	3993.247559
2095.607422	3984.130127
2094.093750	4022.888184
2092.578125	4002.215576
2091.064453	4029.402832
2089.548828	4038.432129
2088.033203	4022.717529
2086.517578	4049.882813
2085.000000	4065.496338
2083.484375	4142.088867
2081.966797	4019.251465
2080.449219	3995.320068
2078.931641	3954.927246
2077.414063	4003.481445
2075.894531	4107.995117
2074.376953	4009.989502
2072.857422	4081.541504
2071.337891	4044.464355
2069.818359	3976.146729
2068.298828	4039.436279
2066.777344	4076.388672
2065.257813	3957.143799
2063.736328	4061.488281
2062.214844	3975.164063
2060.693359	4018.670410
2059.171875	3999.739014
2057.648438	4028.441406
2056.126953	3963.542969
2054.603516	4069.393311
2053.080078	4052.108643
2051.556641	4051.239746
2050.033203	3951.941650
2048.507813	4103.627441
2046.984375	4115.866699
2045.458984	4062.522949
2043.933594	3960.029297
2042.408203	4047.673096
2040.882813	3951.780029
2039.355469	4024.645508
2037.830078	4112.219238
2036.302734	4024.560547
2034.775391	3987.686035
2033.248047	4063.754639
2031.718750	4067.794434
2030.191406	4109.458984
2028.662109	4036.614746
2027.134766	4065.186035
2025.605469	4069.221924
2024.076172	3965.376953
2022.544922	4065.849365
2021.015625	4096.023926
2019.484375	4122.918457
2017.955078	4006.085205
2016.423828	4013.394043
2014.892578	4022.332031
2013.359375	4024.738037
2011.828125	4022.247559
2010.294922	3934.925537
2008.761719	4062.938965
2007.230469	4003.367432
2005.695313	4066.097412
2004.162109	3996.770508
2002.628906	4010.585449
2001.093750	3925.006592
1999.558594	4031.681885
1998.023438	3990.107666
1996.488281	3986.000977
1994.953125	3952.593750
1993.417969	3966.400146
1991.880859	4074.580078
1990.343750	4067.205078
1988.806641	4107.002930
1987.269531	4003.678711
1985.732422	3880.888672
1984.193359	4039.361816
1982.656250	3975.121582
1981.117188	4032.769043
1979.578125	3991.299805
1978.039063	4042.422852
1976.500000	4077.286377
1974.958984	3996.871826
1973.417969	4009.007080
1971.878906	4074.687012
1970.337891	4083.555664
1968.796875	4017.806152
1967.253906	4023.439453
1965.712891	4040.419678
1964.169922	3934.195801
1962.626953	3973.877197
1961.083984	3990.856934
1959.541016	3986.769775
1957.998047	3956.770020
1956.455078	4054.706787
1954.910156	4000.421143
1953.365234	3986.623291
1951.820313	4047.271484
1950.275391	4048.030762
1948.730469	4027.760986
1947.183594	4089.978760
1945.638672	4047.072266
1944.091797	4017.116211
1942.544922	4029.194092
1940.998047	3963.705322
1939.449219	4113.108398
1937.902344	4075.087402
1936.353516	3957.955566
1934.804688	4055.600830
1933.255859	4011.159180
1931.707031	4018.378418
1930.158203	4059.477051
1928.607422	4063.456543
1927.058594	3877.125977
1925.507813	4047.223145
1923.957031	3985.106445
1922.406250	4022.944580
1920.853516	3918.962158
1919.302734	4011.574707
1917.750000	4026.832520
1916.197266	4037.252930
1914.644531	4042.838379
1913.091797	3992.081787
1911.539063	3992.846191
1909.984375	3958.211426
1908.431641	4002.417236
1906.876953	4020.870361
1905.322266	4018.411621
1903.767578	4023.992188
1902.210938	4003.852783
1900.656250	3996.577881
1899.099609	3986.092773
1897.542969	4060.746094
1895.986328	3998.860352
1894.429688	3967.507813
1892.873047	4005.195557
1891.314453	4089.411133
1889.755859	3977.828125
1888.199219	3914.420654
1886.640625	3902.365479
1885.080078	3949.648193
1883.521484	4024.166260
1881.960938	3988.051514
1880.402344	4056.119141
1878.841797	4003.990234
1877.281250	3948.679443
1875.720703	4018.313477
1874.158203	4059.096191
1872.597656	3950.979004
1871.035156	3986.956787
1869.472656	3971.712402
1867.910156	4100.462402
1866.347656	3974.832764
1864.783203	3922.818848
1863.220703	3987.542969
1861.656250	3967.518311
1860.091797	4001.840088
1858.527344	4010.581787
1856.962891	3965.004395
1855.396484	3991.318604
1853.832031	4086.285400
1852.265625	4055.088867
1850.699219	4015.924561
1849.132813	4024.651367
1847.566406	3961.577393
1845.998047	3979.882568
1844.431641	4038.049805
1842.863281	4077.058594
1841.294922	4060.256348
1839.726563	4024.335205
1838.156250	4084.036865
1836.587891	3907.930908
1835.017578	4083.905029
1833.449219	4048.008545
1831.878906	4045.561768
1830.306641	4044.707275
1828.736328	3969.055420
1827.166016	4042.999268
1825.593750	4118.502441
1824.021484	4089.004883
1822.449219	3894.149658
1820.876953	3963.276855
1819.304688	4013.301514
1817.730469	3987.028564
1816.158203	4035.438232
1814.583984	4029.820801
1813.009766	3994.031982
1811.435547	4140.849121
1809.859375	4011.394287
1808.285156	4007.373047
1806.708984	3935.123535
1805.132813	3929.533203
1803.556641	4028.625977
1801.980469	4026.189453
1800.404297	3987.289551
1798.826172	4091.062256
1797.248047	4079.104980
1795.671875	4075.074707
1794.093750	4142.329102
1792.513672	4131.951660
1790.935547	4056.659424
1789.355469	4005.144775
1787.777344	4145.161621
1786.197266	4128.461914
1784.617188	4057.979492
1783.035156	4020.742920
1781.455078	4106.870117
1779.873047	4022.206543
1778.292969	4041.906250
1776.710938	4015.766113
1775.128906	4125.521484
1773.544922	4069.359863
1771.962891	4090.611572
1770.378906	4002.899414
1768.794922	4058.887695
1767.212891	4035.932617
1765.626953	4153.434082
1764.042969	4056.315430
1762.458984	4151.678711
1760.873047	4089.296387
1759.287109	4162.538086
1757.701172	4149.047363
1756.115234	4195.452148
1754.529297	4128.384766
1752.941406	4165.321777
1751.355469	4208.542480
1749.767578	4193.480469
1748.179688	4191.019531
1746.591797	4259.392090
1745.001953	4187.674316
1743.414063	4194.655762
1741.824219	4181.184570
1740.234375	4276.236328
1738.644531	4295.773438
1737.054688	4342.026367
1735.462891	4311.245605
1733.873047	4275.763184
1732.281250	4345.556152
1730.689453	4376.051758
1729.097656	4386.118652
1727.505859	4400.891602
1725.912109	4478.447266
1724.320313	4339.392578
1722.726563	4420.065918
1721.132813	4412.855469
1719.539063	4438.584473
1717.945313	4553.682617
1716.349609	4483.738281
1714.755859	4465.547363
1713.160156	4555.492676
1711.564453	4593.696777
1709.968750	4594.291016
1708.371094	4648.130859
1706.775391	4686.290527
1705.177734	4694.690430
1703.580078	4659.264648
1701.982422	4703.655762
1700.384766	4676.063965
1698.787109	4646.919922
1697.187500	4656.881836
1695.587891	4726.249512
1693.990234	4744.005371
1692.390625	4724.247070
1690.789063	4726.370605
1689.189453	4691.002441
1687.587891	4732.176270
1685.988281	4817.052246
1684.386719	4794.175781
1682.785156	4751.018066
1681.181641	4657.944336
1679.580078	4719.361328
1677.976563	4838.464355
1676.373047	4874.864746
1674.769531	4883.185547
1673.166016	4829.150879
1671.562500	4976.180664
1669.957031	4884.752930
1668.353516	5011.456055
1666.748047	5088.266602
1665.142578	5151.029297
1663.537109	5093.890625
1661.929688	5200.206543
1660.324219	5379.616211
1658.716797	5381.585449
1657.109375	5529.770020
1655.501953	5671.670410
1653.894531	5689.123535
1652.285156	5806.057129
1650.677734	6033.286621
1649.068359	5985.389648
1647.458984	6173.645996
1645.849609	6206.503906
1644.240234	6279.721680
1642.628906	6306.332031
1641.019531	6427.614258
1639.408203	6364.173340
1637.796875	6452.808594
1636.185547	6560.020508
1634.572266	6718.364746
1632.960938	6803.765625
1631.347656	6814.720215
1629.734375	6986.856445
1628.121094	7050.451172
1626.507813	7196.126465
1624.894531	7289.077148
1623.279297	7538.392090
1621.664063	7530.594238
1620.048828	7589.359375
1618.433594	7809.045898
1616.818359	7892.480957
1615.203125	8059.413086
1613.585938	8210.807617
1611.968750	8490.476563
1610.351563	8666.448242
1608.734375	8904.168945
1607.117188	9118.608398
1605.498047	9247.983398
1603.878906	9368.036133
1602.261719	9478.770508
1600.640625	9621.879883
1599.021484	9641.438477
1597.402344	9818.403320
1595.781250	9939.745117
1594.162109	10079.546875
1592.541016	10208.491211
1590.919922	10076.786133
1589.296875	10256.549805
1587.675781	10263.607422
1586.052734	10187.448242
1584.429688	10228.411133
1582.806641	10190.798828
1581.183594	10090.062500
1579.560547	10271.126953
1577.935547	10452.113281
1576.312500	10266.737305
1574.687500	10213.766602
1573.062500	10476.179688
1571.435547	10361.664063
1569.810547	10619.318359
1568.183594	10407.965820
1566.558594	10696.239258
1564.931641	10634.019531
1563.304688	10531.878906
1561.675781	10720.095703
1560.048828	10587.264648
1558.419922	10509.763672
1556.791016	10456.856445
1555.162109	10439.270508
1553.533203	10360.313477
1551.904297	10491.559570
1550.273438	10268.452148
1548.642578	10250.916992
1547.011719	10224.190430
1545.380859	9993.617188
1543.750000	9761.610352
1542.119141	9523.572266
1540.486328	9705.343750
1538.853516	9464.355469
1537.220703	9468.450195
1535.587891	9604.189453
1533.955078	9680.182617
1532.320313	9720.948242
1530.685547	9724.980469
1529.052734	9744.305664
1527.416016	10031.222656
1525.781250	9992.375977
1524.146484	9984.115234
1522.509766	9771.083984
1520.873047	9904.961914
1519.236328	9725.641602
1517.599609	9831.981445
1515.962891	9727.568359
1514.324219	9523.975586
1512.687500	9352.519531
1511.048828	9107.894531
1509.410156	9029.658203
1507.771484	8806.559570
1506.130859	8673.524414
1504.492188	8439.925781
1502.851563	8258.250000
1501.210938	8192.467773
1499.570313	8012.446289
1497.927734	7771.571289
1496.287109	7634.357910
1494.644531	7363.215332
1493.001953	7261.159180
1491.359375	7309.817383
1489.716797	7076.958496
1488.074219	7086.081055
1486.429688	6950.709961
1484.785156	6935.524902
1483.140625	6681.660645
1481.496094	6619.420410
1479.851563	6706.129883
1478.207031	6429.688477
1476.560547	6473.869141
1474.914063	6425.393066
1473.267578	6433.114746
1471.621094	6501.552734
1469.972656	6330.169434
1468.326172	6363.699707
1466.677734	6178.766602
1465.029297	6197.146973
1463.380859	6119.989258
1461.732422	6111.085449
1460.082031	6037.010254
1458.431641	6025.096191
1456.783203	6061.667969
1455.132813	6034.605957
1453.480469	5939.407715
1451.830078	5979.000977
1450.177734	5912.615723
1448.527344	6000.625000
1446.875000	5950.906738
1445.220703	6057.021484
1443.568359	5955.889160
1441.916016	6058.931641
1440.261719	6062.153320
1438.607422	5980.732422
1436.953125	5922.013184
1435.298828	5923.749512
1433.642578	6005.538574
1431.988281	5928.729004
1430.332031	5859.500977
1428.675781	5788.792969
1427.019531	5850.919434
1425.361328	5866.245117
1423.705078	5697.529297
1422.046875	5703.831543
1420.388672	5824.725586
1418.730469	5944.058594
1417.072266	5843.292969
1415.412109	5929.418457
1413.753906	6157.118652
1412.093750	6050.345703
1410.433594	6073.122559
1408.773438	6062.767090
1407.111328	5935.010254
1405.451172	5861.483398
1403.789063	5763.915527
1402.126953	5637.809570
1400.464844	5586.952637
1398.802734	5689.480957
1397.138672	5510.858398
1395.474609	5661.450195
1393.812500	5573.065918
1392.146484	5564.338867
1390.482422	5602.174805
1388.818359	5506.351563
1387.152344	5551.688965
1385.486328	5652.540527
1383.820313	5676.816406
1382.154297	5677.076660
1380.488281	5795.833008
1378.820313	5904.039063
1377.154297	5827.783691
1375.486328	5935.934570
1373.818359	5964.609375
1372.148438	6188.052246
1370.480469	6180.706543
1368.810547	6329.120605
1367.140625	6395.115234
1365.470703	6404.194336
1363.800781	6024.132324
1362.130859	5997.375000
1360.458984	5735.752930
1358.787109	5822.742676
1357.115234	5770.624023
1355.443359	5723.012695
1353.771484	5490.077637
1352.097656	5698.087402
1350.423828	5637.075195
1348.751953	5818.073242
1347.076172	5807.836426
1345.402344	5893.159668
1343.728516	6021.734863
1342.052734	5984.594238
1340.376953	6081.757813
1338.701172	6295.235352
1337.025391	6114.879883
1335.347656	5964.425293
1333.671875	5952.678711
1331.994141	5820.210449
1330.316406	5717.601563
1328.638672	5615.038086
1326.960938	5667.423340
1325.281250	5414.511230
1323.601563	5580.066406
1321.921875	5568.418457
1320.242188	5613.324707
1318.562500	5577.868164
1316.880859	5595.976563
1315.201172	5593.256348
1313.519531	5623.247070
1311.837891	5810.794922
1310.154297	5657.922363
1308.472656	5759.198730
1306.789063	5815.863770
1305.105469	5882.899414
1303.421875	5958.814941
1301.738281	5953.045410
1300.054688	6180.300781
1298.369141	6201.194336
1296.683594	6085.589355
1294.998047	6253.333984
1293.312500	6200.049805
1291.626953	6212.022461
1289.939453	6135.053711
1288.253906	6050.708496
1286.566406	6116.041992
1284.878906	6042.105957
1283.189453	6003.745117
1281.501953	6030.547852
1279.812500	5932.993652
1278.123047	5940.559082
1276.433594	5820.872559
1274.744141	5881.713379
1273.052734	5813.855469
1271.363281	5809.609375
1269.671875	5732.926758
1267.980469	5829.202637
1266.289063	5751.070801
1264.595703	5735.020996
1262.904297	5803.167480
1261.210938	5897.863281
1259.517578	5781.397949
1257.824219	5850.963379
1256.128906	5759.645996
1254.435547	5737.710449
1252.740234	5760.036133
1251.044922	5652.576172
1249.349609	5738.307617
1247.652344	5871.170410
1245.957031	5865.443359
1244.259766	5903.919922
1242.562500	5839.263184
1240.865234	5849.745117
1239.167969	5673.225098
1237.468750	5632.214844
1235.769531	5486.727539
1234.072266	5342.775391
1232.371094	5425.437500
1230.671875	5368.338379
1228.972656	5389.198242
1227.271484	5399.756836
1225.570313	5419.129395
1223.869141	5426.736816
1222.167969	5479.883301
1220.464844	5531.537109
1218.763672	5461.283203
1217.060547	5534.938965
1215.357422	5620.304199
1213.654297	5566.218262
1211.949219	5617.791992
1210.246094	5625.336914
1208.541016	5637.277832
1206.835938	5745.980469
1205.130859	5697.787598
1203.423828	5602.718262
1201.718750	5544.321289
1200.011719	5658.805176
1198.304688	5563.806641
1196.597656	5609.415527
1194.888672	5707.703125
1193.181641	5589.338867
1191.472656	5658.321289
1189.763672	5626.331543
1188.054688	5756.701172
1186.343750	5674.986328
1184.634766	5704.413086
1182.923828	5799.598145
1181.212891	5802.680176
1179.501953	5791.150391
1177.791016	5884.789551
1176.078125	5985.687012
1174.365234	5949.303223
1172.652344	6098.307129
1170.939453	6037.104980
1169.226563	6067.844727
1167.511719	6069.397461
1165.798828	6167.197266
1164.083984	6189.137207
1162.369141	6253.338379
1160.652344	6215.497559
1158.937500	6253.437012
1157.220703	6253.485352
1155.503906	6241.881836
1153.787109	6253.579590
1152.070313	6116.791016
1150.351563	6097.947754
1148.632813	5927.789551
1146.916016	5939.544434
1145.195313	5737.500977
1143.476563	5528.278320
1141.757813	5464.520508
1140.037109	5474.914063
1138.316406	5268.795898
1136.595703	5193.516602
1134.875000	5138.604492
1133.152344	4984.975098
1131.429688	5027.400879
1129.708984	5013.201660
1127.984375	4920.648926
1126.261719	4984.820313
1124.539063	4956.134277
1122.814453	4914.409668
1121.089844	4671.184570
1119.365234	4713.610352
1117.640625	4582.122070
1115.914063	4466.629395
1114.187500	4525.004395
1112.462891	4415.368652
1110.734375	4385.411621
1109.007813	4285.988770
1107.281250	4303.829590
1105.552734	4237.746582
1103.824219	4184.711426
1102.095703	4273.423828
1100.367188	4291.249512
1098.636719	4284.493652
1096.908203	4238.719727
1095.177734	4364.904297
1093.447266	4363.912598
1091.714844	4302.264160
1089.984375	4242.087891
1088.251953	4228.131348
1086.519531	4359.945313
1084.787109	4382.040039
1083.054688	4320.455566
1081.320313	4237.265137
1079.585938	4381.932617
1077.851563	4192.088867
1076.117188	4342.464844
1074.382813	4291.043945
1072.648438	4158.972656
1070.912109	4312.132813
1069.175781	4301.070313
1067.439453	4256.901367
1065.701172	4283.276855
1063.964844	4275.104980
1062.226563	4281.322754
1060.488281	4195.486816
1058.750000	4283.682617
1057.011719	4331.583984
1055.271484	4192.613770
1053.531250	4095.378906
1051.791016	4113.119629
1050.050781	4181.123047
1048.310547	4172.987305
1046.568359	4094.507568
1044.826172	4113.666016
1043.083984	4033.799805
1041.341797	4024.268799
1039.599609	4024.782227
1037.855469	4046.805420
1036.113281	4001.434326
1034.369141	4110.887207
1032.623047	4054.057129
1030.878906	3987.223877
1029.132813	4039.308350
1027.386719	4078.479980
1025.640625	4046.047119
1023.894531	4088.061035
1022.148438	3938.292725
1020.400391	4074.739990
1018.652344	4032.323242
1016.904297	4017.096924
1015.156250	3974.711914
1013.406250	3962.364014
1011.658203	3967.170410
1009.908203	4049.127441
1008.158203	3939.635742
1006.408203	3985.858154
1004.656250	4044.908691
1002.904297	4095.367188
1001.152344	4201.459961
999.400391	4267.552734
997.648438	4333.615234
995.896484	4132.958008
994.142578	4140.561523
992.388672	4176.670898
990.634766	4115.852539
988.878906	4109.205566
987.125000	3981.478271
985.369141	4094.494629
983.613281	4013.815674
981.857422	3957.373291
980.099609	3987.770996
978.343750	4103.525879
976.585938	4085.508789
974.828125	4033.366943
973.070313	4113.482910
971.310547	4014.446777
969.552734	4157.062988
967.792969	4175.995605
966.033203	4196.339355
964.273438	4166.965332
962.511719	4168.842285
960.750000	4190.591797
958.990234	4205.234863
957.226563	4202.843750
955.464844	4272.801270
953.703125	4260.466797
951.939453	4184.330566
950.175781	4242.901367
948.412109	4243.336914
946.648438	4119.079590
944.882813	4186.123535
943.117188	4169.574707
941.351563	4107.722168
939.585938	4057.223145
937.820313	4149.693359
936.052734	4116.187012
934.285156	4163.330566
932.517578	4063.362305
930.750000	4152.915527
928.982422	4133.574707
927.212891	4025.201172
925.443359	4062.418457
923.673828	4116.570313
921.904297	4133.975098
920.132813	4065.237549
918.361328	4043.117676
916.591797	4039.355469
914.818359	3900.134277
913.046875	3934.495605
911.275391	3995.638184
909.501953	3949.587158
907.728516	3985.321533
905.955078	3881.507813
904.179688	3934.149902
902.406250	3943.095459
900.630859	3911.192383
898.855469	3976.462402
897.080078	4006.507324
895.302734	3959.128662
893.525391	3989.162842
891.750000	3998.081055
889.970703	3908.542480
888.193359	3951.221436
886.416016	3923.590088
884.636719	3922.675293
882.857422	3923.165527
881.078125	3877.296143
879.296875	3917.121826
877.517578	3857.232910
875.736328	3812.813721
873.955078	3956.484863
872.173828	3816.646240
870.390625	3950.428711
868.609375	3799.436035
866.826172	3891.093262
865.042969	3810.277588
863.259766	3882.267090
861.474609	3847.730469
859.689453	4010.734375
857.904297	3969.180420
856.119141	4055.066162
854.333984	4021.919922
852.546875	4125.946777
850.761719	4140.373047
848.974609	4151.994141
847.185547	4169.204102
845.398438	4155.643066
843.609375	4164.455566
841.822266	4094.997070
840.031250	4144.339844
838.242188	4076.314941
836.453125	4099.102051
834.662109	4024.137451
832.871094	4055.301270
831.080078	4015.272217
829.289063	3978.052246
827.496094	3915.739502
825.703125	3931.556641
823.910156	3890.198486
822.117188	3819.584961
820.324219	3875.829102
818.529297	3759.270752
816.734375	3768.139160
814.939453	3802.071533
813.144531	3771.938477
811.347656	3762.699951
809.550781	3792.433594
807.755859	3801.281982
805.957031	3743.354736
804.160156	3660.421143
802.361328	3651.217773
800.564453	3757.395508
798.765625	3759.291016
796.964844	3736.175781
795.166016	3750.576660
793.365234	3726.084717
791.564453	3704.380859
789.763672	3632.714600
787.962891	3617.981201
786.160156	3536.655762
784.359375	3531.661377
782.556641	3494.772217
780.751953	3424.624268
778.949219	3439.064941
777.144531	3353.718506
775.339844	3433.287109
773.535156	3353.522217
771.730469	3377.658936
769.925781	3367.170410
768.119141	3364.991943
766.312500	3451.382080
764.505859	3346.801514
762.697266	3412.406250
760.890625	3442.024414
759.082031	3363.788086
757.273438	3416.901123
755.464844	3395.365479
753.654297	3491.274658
751.845703	3392.380371
750.035156	3493.768066
748.224609	3492.942383
746.412109	3460.370361
744.601563	3517.510498
742.789063	3399.410400
740.976563	3532.399170
739.164063	3497.089111
737.349609	3439.737305
735.537109	3467.868408
733.722656	3515.278076
731.908203	3515.823730
730.091797	3531.520020
728.277344	3543.077148
726.460938	3567.019043
724.644531	3505.614258
722.828125	3303.881592
721.009766	3458.555176
719.193359	3454.985352
717.375000	3439.041016
715.556641	3439.601074
713.736328	3368.690674
711.917969	3381.633301
710.097656	3415.175781
708.277344	3359.428711
706.457031	3332.542969
704.636719	3434.711670
702.814453	3377.626221
700.992188	3412.500488
699.169922	3336.241455
697.347656	3353.279297
695.523438	3331.916260
693.699219	3438.050537
691.875000	3393.378174
690.050781	3393.942871
688.226563	3395.876709
686.400391	3581.326904
684.574219	3529.815674
682.748047	3508.444092
680.921875	3541.824707
679.095703	3452.048096
677.267578	3505.944092
675.439453	3589.901123
673.611328	3507.012695
671.781250	3593.662598
669.953125	3590.075195
668.123047	3568.727539
666.292969	3675.789551
664.460938	3743.197021
662.630859	3717.731201
660.798828	3819.220703
658.966797	3939.766602
657.134766	4011.138916
655.302734	4092.025146
653.468750	4108.779297
651.634766	4088.714355
649.800781	4210.414063
647.966797	4381.113281
646.130859	4407.318359
644.294922	4290.493652
642.458984	4360.282227
640.623047	4242.162109
638.787109	4197.597168
636.949219	4060.520752
635.111328	4033.705078
633.273438	4024.583252
631.435547	4014.105713
629.595703	3903.032227
627.757813	3889.869873
625.917969	3859.048584
624.076172	3879.864746
622.236328	3812.389160
620.394531	3772.102783
618.552734	3718.259766
616.710938	3622.369141
614.869141	3626.932617
613.025391	3657.268311
611.183594	3557.391113
609.339844	3544.339355
607.494141	3559.760498
605.650391	3469.464111
603.804688	3516.058838
601.958984	3478.645264
600.113281	3448.020752
598.267578	3390.331055
596.419922	3373.278076
594.572266	3335.933105
592.724609	3297.252686
590.876953	3372.215088
589.027344	3338.953369
587.179688	3282.722900
585.330078	3252.201416
583.480469	3268.992432
581.628906	3364.136719
579.779297	3307.952881
577.927734	3304.461670
576.076172	3392.778320
574.222656	3337.976807
572.371094	3280.502441
570.517578	3239.244629
568.664063	3180.471924
566.810547	3224.211670
564.955078	3191.085205
563.101563	3211.887695
561.246094	3169.346924
559.390625	3159.158691
557.533203	3165.137695
555.677734	3141.489502
553.820313	3031.694336
551.962891	3063.270752
550.105469	3104.251221
548.246094	3114.270752
546.386719	3121.595459
544.527344	3036.137939
542.667969	3118.757813
540.808594	3041.405273
538.947266	3048.739502
537.085938	3116.519531
535.224609	3079.512695
533.363281	3027.753662
531.500000	3059.245850
529.638672	3082.670410
527.775391	3166.460938
525.910156	3201.920898
524.046875	3272.231689
522.181641	3786.299072
520.316406	4258.566895
518.451172	4175.800293
516.585938	3608.067383
514.718750	3273.674316
512.851563	3074.695801
510.984375	3061.910156
509.117188	2966.142578
507.250000	2989.519775
505.380859	3012.885498
503.511719	2954.649170
501.642578	2999.407471
499.771484	2957.244873
497.902344	2931.141357
496.031250	3038.677002
494.160156	2981.839355
492.287109	3033.214600
490.416016	3072.547119
488.542969	3114.530762
486.669922	3084.421875
484.796875	3071.673828
482.921875	3093.616455
481.046875	3100.877441
479.171875	3081.467041
477.296875	3036.737305
475.421875	3010.687500
473.544922	3031.284912
471.667969	2986.598877
469.791016	3051.141113
467.914063	3053.072998
466.035156	3007.082031
464.156250	2913.202881
462.277344	2968.386475
460.398438	2922.448242
458.519531	2949.675293
456.638672	2950.298096
454.757813	2966.871094
452.876953	2938.252686
450.994141	2960.134766
449.113281	2932.859619
447.230469	3009.178955
445.347656	3021.734131
443.462891	2987.826660
441.580078	3014.977783
439.695313	2966.494141
437.810547	2965.783203
435.925781	2950.485596
434.039063	2880.839844
432.152344	2964.976563
430.267578	2939.088867
428.378906	2968.854736
426.492188	2941.653564
424.603516	2940.948486
422.714844	2937.595947
420.826172	2997.773926
418.937500	2903.107910
417.046875	2973.848145
415.158203	3019.425293
413.265625	2968.456055
411.375000	2949.237549
409.484375	2970.998291
407.591797	3000.676025
405.699219	2952.401611
403.806641	2959.618164
401.912109	2994.558350
400.019531	2972.720215
