#Wave		#Intensity
1585.210938	18887.197266
1584.209961	18794.785156
1583.208984	18608.601563
1582.208008	18869.386719
1581.206055	18700.734375
1580.204102	18876.541016
1579.202148	18702.966797
1578.200195	18676.642578
1577.198242	18645.339844
1576.195313	18414.566406
1575.192383	18532.910156
1574.189453	18613.814453
1573.186523	18445.490234
1572.182617	18366.925781
1571.178711	18298.359375
1570.174805	17995.718750
1569.170898	18288.289063
1568.166992	18279.523438
1567.162109	18220.982422
1566.158203	17829.027344
1565.153320	18138.802734
1564.147461	18000.730469
1563.142578	18275.525391
1562.136719	18197.152344
1561.130859	18287.843750
1560.125000	18261.689453
1559.119141	18511.351563
1558.113281	18514.970703
1557.106445	18915.982422
1556.099609	19336.693359
1555.092773	19139.041016
1554.084961	19130.113281
1553.078125	19704.378906
1552.070313	19901.273438
1551.062500	20224.595703
1550.054688	20540.343750
1549.045898	20992.337891
1548.038086	21347.460938
1547.029297	21722.261719
1546.020508	22223.291016
1545.011719	22548.203125
1544.001953	23303.986328
1542.992188	23717.695313
1541.982422	24344.167969
1540.972656	24814.423828
1539.962891	25056.785156
1538.952148	25200.066406
1537.942383	25387.818359
1536.931641	25177.265625
1535.919922	24929.705078
1534.909180	24939.376953
1533.897461	24489.269531
1532.886719	24093.716797
1531.874023	23629.142578
1530.862305	23016.537109
1529.850586	22584.484375
1528.837891	22118.037109
1527.825195	21775.226563
1526.812500	21259.771484
1525.799805	20559.443359
1524.786133	20426.886719
1523.772461	19912.029297
1522.758789	19853.646484
1521.745117	19272.542969
1520.731445	19359.767578
1519.716797	19106.818359
1518.702148	18849.042969
1517.687500	18872.240234
1516.672852	18678.664063
1515.657227	18896.441406
1514.642578	18855.593750
1513.626953	18583.365234
1512.610352	18992.996094
1511.594727	18930.005859
1510.579102	18687.449219
1509.562500	18890.189453
1508.545898	18802.666016
1507.529297	18929.080078
1506.511719	19021.025391
1505.494141	19090.814453
1504.477539	18991.031250
1503.458984	19053.425781
1502.441406	18916.849609
1501.423828	18925.208984
1500.405273	19110.330078
1499.386719	18794.640625
1498.368164	18987.070313
1497.348633	18791.759766
1496.330078	18979.203125
1495.310547	18891.884766
1494.291016	19091.488281
1493.271484	19043.406250
1492.250977	18877.693359
1491.231445	19072.271484
1490.210938	18950.718750
1489.190430	18897.800781
1488.168945	18837.558594
1487.148438	19058.914063
1486.126953	19006.003906
1485.105469	19229.677734
1484.083984	19086.214844
1483.061523	19074.919922
1482.040039	19406.058594
1481.017578	19230.855469
1479.995117	19473.804688
1478.971680	19371.992188
1477.949219	19680.794922
1476.925781	19955.261719
1475.902344	19943.794922
1474.878906	20218.091797
1473.855469	20472.738281
1472.831055	20929.912109
1471.806641	21096.431641
1470.782227	21397.101563
1469.757813	21917.232422
1468.733398	21822.429688
1467.708008	22517.851563
1466.682617	23054.490234
1465.657227	23625.037109
1464.631836	24300.148438
1463.605469	25284.455078
1462.579102	26075.884766
1461.552734	26845.060547
1460.526367	27582.257813
1459.500000	28414.103516
1458.472656	28739.269531
1457.445313	29385.560547
1456.417969	29627.654297
1455.390625	29585.011719
1454.362305	29904.794922
1453.334961	29103.398438
1452.306641	28596.515625
1451.277344	28126.302734
1450.249023	27614.968750
1449.219727	27273.929688
1448.191406	26102.226563
1447.162109	25353.611328
1446.131836	24610.162109
1445.102539	24032.105469
1444.072266	23245.546875
1443.041992	22956.789063
1442.011719	22231.433594
1440.981445	21838.699219
1439.950195	21521.310547
1438.918945	21111.912109
1437.887695	20753.589844
1436.856445	20458.433594
1435.825195	20434.794922
1434.792969	20493.537109
1433.760742	19961.240234
1432.728516	19838.427734
1431.696289	19824.617188
1430.663086	19588.111328
1429.629883	19712.306641
1428.596680	19296.863281
1427.563477	19125.927734
1426.530273	19054.226563
1425.496094	19043.007813
1424.461914	18705.410156
1423.427734	18583.076172
1422.393555	18296.462891
1421.358398	18485.947266
1420.323242	18438.619141
1419.288086	18251.230469
1418.252930	18281.236328
1417.217773	18262.945313
1416.181641	18051.570313
1415.145508	18228.796875
1414.109375	18217.763672
1413.073242	18286.333984
1412.036133	18378.992188
1411.000000	18404.097656
1409.962891	18549.722656
1408.924805	18601.291016
1407.887695	18970.906250
1406.849609	19292.183594
1405.812500	19439.906250
1404.773438	19931.927734
1403.735352	20115.566406
1402.697266	20433.925781
1401.658203	20812.316406
1400.619141	21127.990234
1399.580078	21296.789063
1398.540039	21511.212891
1397.500977	21622.148438
1396.460938	21519.070313
1395.420898	21726.099609
1394.380859	21591.800781
1393.339844	21729.048828
1392.298828	21270.521484
1391.257813	20929.859375
1390.216797	21146.392578
1389.175781	21045.957031
1388.133789	20835.156250
1387.091797	20905.195313
1386.049805	21080.761719
1385.007813	21227.472656
1383.964844	21388.507813
1382.922852	21633.390625
1381.879883	21547.371094
1380.835938	21734.597656
1379.792969	22072.697266
1378.749023	22472.939453
1377.706055	22355.675781
1376.661133	22434.814453
1375.617188	22794.027344
1374.573242	22794.050781
1373.528320	23009.449219
1372.483398	22940.041016
1371.438477	23329.937500
1370.392578	23195.914063
1369.347656	23265.187500
1368.301758	23343.992188
1367.255859	23515.974609
1366.208984	23604.250000
1365.163086	23582.587891
1364.116211	23248.031250
1363.069336	23295.703125
1362.022461	23438.859375
1360.974609	23510.339844
1359.927734	23579.402344
1358.879883	23581.625000
1357.832031	23853.414063
1356.783203	23846.035156
1355.735352	23795.734375
1354.686523	24374.849609
1353.637695	24472.238281
1352.588867	24874.619141
1351.539063	25090.988281
1350.490234	25588.349609
1349.440430	26490.371094
1348.390625	26808.646484
1347.339844	27264.861328
1346.290039	27832.746094
1345.239258	28621.693359
1344.188477	29162.882813
1343.137695	29465.982422
1342.085938	29925.908203
1341.034180	30471.232422
1339.982422	31101.900391
1338.930664	31040.712891
1337.878906	31773.166016
1336.826172	31911.408203
1335.773438	31778.830078
1334.720703	31924.132813
1333.667969	31998.150391
1332.614258	31903.607422
1331.561523	31545.687500
1330.507813	31121.482422
1329.453125	30901.455078
1328.399414	30114.705078
1327.344727	29499.000000
1326.290039	29405.089844
1325.235352	28941.476563
1324.180664	28579.951172
1323.125000	28694.767578
1322.070313	28236.328125
1321.014648	28026.730469
1319.958008	28179.466797
1318.902344	27775.863281
1317.845703	27841.019531
1316.789063	27534.662109
1315.732422	27124.345703
1314.675781	26647.974609
1313.618164	26483.935547
1312.560547	25660.367188
1311.502930	25007.328125
1310.445313	24555.427734
1309.386719	24051.738281
1308.329102	23496.291016
1307.270508	23047.351563
1306.210938	22064.978516
1305.152344	22268.066406
1304.092773	21781.900391
1303.033203	21409.203125
1301.973633	21090.921875
1300.914063	21067.605469
1299.853516	20542.007813
1298.792969	20316.054688
1297.732422	20139.695313
1296.671875	20283.917969
1295.611328	20168.896484
1294.549805	20049.212891
1293.488281	20122.703125
1292.426758	20163.195313
1291.364258	20460.275391
1290.302734	20154.681641
1289.240234	20042.179688
1288.177734	19892.078125
1287.114258	20384.191406
1286.051758	19900.136719
1284.988281	19933.552734
1283.924805	19800.050781
1282.861328	20153.097656
1281.796875	19963.210938
1280.732422	19890.863281
1279.667969	19966.513672
1278.603516	20251.123047
1277.539063	20253.882813
1276.473633	20472.585938
1275.408203	20667.726563
1274.342773	20543.695313
1273.277344	20471.320313
1272.210938	20556.107422
1271.145508	20708.853516
1270.079102	20847.468750
1269.011719	20601.646484
1267.945313	20632.433594
1266.877930	20539.037109
1265.810547	20459.732422
1264.743164	20073.689453
1263.674805	19587.130859
1262.607422	19510.416016
1261.539063	19370.542969
1260.470703	19263.484375
1259.401367	19142.435547
1258.333008	18789.894531
1257.263672	18776.556641
1256.194336	18227.863281
1255.125000	17969.228516
1254.054688	17825.207031
1252.985352	17636.855469
1251.915039	17509.312500
1250.843750	17290.744141
1249.773438	17233.371094
1248.702148	17299.742188
1247.630859	17195.710938
1246.559570	16851.390625
1245.488281	16829.146484
1244.416016	16736.941406
1243.343750	16717.060547
1242.271484	16503.683594
1241.199219	16346.337891
1240.125977	16519.970703
1239.053711	16628.289063
1237.980469	16496.636719
1236.906250	16392.984375
1235.833008	16431.408203
1234.758789	16202.105469
1233.684570	16454.669922
1232.610352	16160.304688
1231.536133	16575.615234
1230.460938	16188.310547
1229.385742	16119.750977
1228.310547	16662.671875
1227.235352	16524.304688
1226.159180	16239.588867
1225.083008	16424.326172
1224.006836	16274.479492
1222.930664	16740.142578
1221.853516	16655.304688
1220.777344	16897.824219
1219.700195	16648.199219
1218.622070	17145.867188
1217.544922	16877.732422
1216.466797	17361.216797
1215.388672	17160.398438
1214.310547	17402.494141
1213.232422	17690.843750
1212.153320	17710.240234
1211.074219	18000.714844
1209.995117	18105.744141
1208.916016	18097.244141
1207.835938	18174.419922
1206.755859	18226.093750
1205.675781	18319.408203
1204.595703	18005.412109
1203.514648	17962.230469
1202.434570	18189.691406
1201.353516	17966.109375
1200.271484	18050.123047
1199.190430	17889.074219
1198.108398	18049.330078
1197.026367	17853.689453
1195.944336	17447.916016
1194.862305	17180.888672
1193.779297	17308.826172
1192.696289	16972.681641
1191.613281	17167.541016
1190.530273	17046.175781
1189.446289	16844.111328
1188.362305	16586.773438
1187.278320	16366.443359
1186.194336	16192.318359
1185.109375	16108.166016
1184.024414	16088.578125
1182.939453	16025.218750
1181.854492	15770.683594
1180.768555	15728.145508
1179.683594	15676.413086
1178.597656	15693.766602
1177.510742	15632.855469
1176.424805	15466.115234
1175.337891	15274.137695
1174.250977	15622.782227
1173.164063	15196.284180
1172.077148	15307.976563
1170.989258	15509.269531
1169.901367	15469.164063
1168.813477	15295.807617
1167.724609	15618.720703
1166.636719	15312.194336
1165.547852	15444.376953
1164.458984	15507.628906
1163.369141	15559.376953
1162.280273	15702.890625
1161.190430	15580.208984
1160.100586	16019.546875
1159.010742	15752.372070
1157.919922	15996.596680
1156.829102	15970.227539
1155.738281	16097.416992
1154.647461	16112.277344
1153.555664	16136.292969
1152.464844	16057.234375
1151.373047	16223.215820
1150.280273	16151.038086
1149.188477	16115.509766
1148.095703	16068.554688
1147.002930	15850.031250
1145.910156	15800.863281
1144.817383	15676.250000
1143.723633	15613.419922
1142.629883	15786.058594
1141.536133	15496.979492
1140.441406	15313.126953
1139.347656	15307.534180
1138.252930	15345.334961
1137.158203	15223.282227
1136.062500	15181.181641
1134.967773	15145.945313
1133.872070	15327.502930
1132.776367	15043.575195
1131.679688	15069.971680
1130.583984	15331.239258
1129.487305	15339.320313
1128.390625	15331.440430
1127.292969	15120.738281
1126.196289	15295.181641
1125.098633	15228.085938
1124.000977	15151.909180
1122.903320	14984.684570
1121.804688	15343.395508
1120.706055	15328.689453
1119.607422	15225.245117
1118.508789	15062.694336
1117.409180	15150.408203
1116.310547	15178.957031
1115.210938	15082.450195
1114.110352	15129.183594
1113.010742	15114.538086
1111.910156	15170.329102
1110.809570	15080.717773
1109.708984	14988.872070
1108.607422	14858.465820
1107.506836	14900.639648
1106.405273	14779.384766
1105.303711	14830.629883
1104.201172	14757.081055
1103.098633	14715.315430
1101.996094	14734.791992
1100.893555	14833.606445
1099.791016	14513.055664
1098.687500	14426.052734
1097.583984	14828.458984
1096.480469	14689.324219
1095.376953	14708.772461
1094.272461	14823.305664
1093.167969	15100.769531
1092.063477	14767.060547
1090.958008	15014.999023
1089.853516	15032.086914
1088.748047	15092.138672
1087.642578	15529.779297
1086.536133	15424.662109
1085.430664	15769.369141
1084.324219	15680.061523
1083.217773	15911.599609
1082.110352	16274.040039
1081.003906	16514.376953
1079.896484	16698.164063
1078.789063	17033.105469
1077.680664	17189.615234
1076.573242	16897.060547
1075.464844	17003.902344
1074.356445	16970.871094
1073.247070	17003.238281
1072.138672	16902.589844
1071.029297	16862.833984
1069.919922	16850.134766
1068.809570	16508.531250
1067.700195	16189.597656
1066.589844	16159.034180
1065.479492	15856.073242
1064.368164	15573.500977
1063.257813	15502.583008
1062.146484	15337.200195
1061.035156	15104.409180
1059.922852	14997.654297
1058.811523	14834.735352
1057.699219	14842.724609
1056.586914	14942.852539
1055.473633	14858.690430
1054.361328	14637.533203
1053.248047	14506.307617
1052.134766	14417.801758
1051.021484	14365.251953
1049.907227	14319.457031
1048.792969	14316.315430
1047.678711	14463.485352
1046.564453	14363.864258
1045.449219	14331.559570
1044.333984	14362.042969
1043.218750	14325.266602
1042.103516	14326.602539
1040.987305	14256.241211
1039.871094	14360.628906
1038.754883	14408.982422
1037.638672	14439.400391
1036.521484	14353.401367
1035.404297	14415.148438
1034.287109	14295.626953
1033.169922	14211.949219
1032.051758	14394.456055
1030.933594	14353.276367
1029.815430	14242.810547
1028.697266	14472.124023
1027.578125	14348.270508
1026.458984	14572.988281
1025.339844	14388.857422
1024.220703	14611.232422
1023.100586	14527.638672
1021.980469	14544.527344
1020.860352	14789.033203
1019.740234	14515.804688
1018.619141	14621.906250
1017.498047	14531.706055
1016.376953	14423.707031
1015.255859	14447.275391
1014.133789	14390.599609
1013.011719	14454.269531
1011.889648	14595.879883
1010.767578	14670.609375
1009.644531	14502.593750
1008.521484	14428.152344
1007.398438	14451.673828
1006.274414	14401.750977
1005.151367	14298.455078
1004.027344	14455.442383
1002.902344	14409.995117
1001.778320	14622.466797
1000.653320	14621.457031
999.528320	14609.333984
998.403320	14539.448242
997.278320	14660.625000
996.152344	14724.005859
995.026367	14887.271484
993.900391	14886.195313
992.773438	15047.130859
991.646484	14793.069336
990.519531	15215.717773
989.392578	15136.939453
988.265625	15541.583008
987.137695	15431.728516
986.009766	15579.022461
984.881836	15491.365234
983.752930	15643.008789
982.624023	15657.258789
981.495117	15465.560547
980.366211	15395.710938
979.236328	15567.157227
978.106445	15287.083008
976.976563	15334.577148
975.846680	15041.404297
974.715820	15077.871094
973.585938	14835.736328
972.454102	14682.126953
971.323242	14707.594727
970.191406	14675.603516
969.060547	14480.156250
967.927734	14368.719727
966.795898	14383.189453
965.663086	14402.067383
964.530273	14529.081055
963.397461	14600.872070
962.264648	14577.769531
961.130859	14572.319336
959.997070	14822.663086
958.863281	14627.562500
957.729492	14597.856445
956.594727	14768.692383
955.459961	14901.997070
954.325195	14594.712891
953.189453	14483.555664
952.053711	14575.000000
950.917969	14340.627930
949.782227	14260.408203
948.646484	14369.438477
947.509766	14295.843750
946.373047	14250.870117
945.235352	14307.056641
944.098633	14328.044922
942.960938	14335.835938
941.823242	14653.434570
940.685547	14494.193359
939.546875	14534.882813
938.408203	14685.341797
937.269531	14916.957031
936.129883	14656.833984
934.991211	14840.075195
933.851563	15176.799805
932.711914	14945.301758
931.571289	15095.459961
930.431641	15164.431641
929.291016	15049.255859
928.149414	15109.439453
927.008789	15189.313477
925.867188	15096.109375
924.725586	15114.629883
923.583984	14968.935547
922.441406	15173.531250
921.299805	14664.609375
920.157227	14578.183594
919.013672	14596.792969
917.871094	14348.584961
916.727539	14397.845703
915.583984	14086.397461
914.439453	14284.304688
913.295898	14056.047852
912.151367	14028.867188
911.006836	13977.672852
909.861328	14020.392578
908.716797	13986.684570
907.571289	13896.245117
906.424805	13912.765625
905.279297	14145.251953
904.132813	13825.821289
902.986328	13702.785156
901.839844	14059.423828
900.692383	13807.791992
899.545898	13841.735352
898.398438	13951.914063
897.250000	14009.766602
896.102539	14026.216797
894.954102	13938.155273
893.805664	14163.572266
892.656250	13912.303711
891.507813	14039.715820
890.358398	13938.673828
889.208984	13948.586914
888.058594	14078.076172
886.908203	13777.107422
885.758789	13878.322266
884.607422	13949.071289
883.457031	13919.863281
882.305664	13888.496094
881.154297	13748.577148
880.002930	13814.946289
878.850586	13876.942383
877.698242	13721.928711
876.545898	13688.465820
875.393555	13687.548828
874.240234	13753.850586
873.086914	13566.481445
871.933594	13528.744141
870.780273	13642.704102
869.625977	13466.315430
868.471680	13504.428711
867.317383	13650.795898
866.162109	13589.261719
865.007813	13798.309570
863.852539	13663.193359
862.696289	13344.242188
861.541016	13706.771484
860.384766	13513.376953
859.228516	13328.715820
858.072266	13580.762695
856.915039	13519.345703
855.757813	13648.083008
854.600586	13413.873047
853.442383	13590.083984
852.285156	13602.124023
851.126953	13698.342773
849.968750	13608.919922
848.809570	13476.385742
847.650391	13598.449219
846.491211	13539.298828
845.332031	13409.022461
844.171875	13330.540039
843.012695	13512.865234
841.851563	13675.715820
840.691406	13532.596680
839.530273	13458.458984
838.369141	13395.120117
837.208008	13577.218750
836.046875	13451.464844
834.884766	13745.357422
833.722656	13542.174805
832.560547	13567.064453
831.397461	13675.802734
830.234375	13412.576172
829.071289	13512.700195
827.908203	13569.801758
826.744141	13714.958008
825.580078	13582.975586
824.416016	13682.965820
823.251953	13750.706055
822.086914	13575.874023
820.921875	13682.232422
819.756836	13507.492188
818.590820	13365.004883
817.425781	13437.023438
816.259766	13731.979492
815.092773	13469.500977
813.926758	13477.154297
812.759766	13686.197266
811.592773	13717.358398
810.424805	13418.710938
809.257813	13627.621094
808.089844	13429.732422
806.920898	13655.663086
805.752930	13678.231445
804.583984	13553.192383
803.415039	13543.692383
802.246094	13414.461914
801.076172	13511.876953
799.906250	13389.121094
798.736328	13467.265625
797.566406	13603.048828
796.395508	13482.488281
795.224609	13492.228516
794.053711	13726.106445
792.881836	13742.186523
791.710938	13843.608398
790.538086	14145.505859
789.366211	14417.407227
788.194336	14561.246094
787.021484	14879.825195
785.848633	14637.727539
784.674805	14785.675781
783.500977	14716.263672
782.327148	14502.052734
781.153320	14581.789063
779.979492	14416.667969
778.804688	14270.776367
777.629883	14263.262695
776.454102	14142.999023
775.279297	14167.419922
774.103516	14066.369141
772.927734	14058.905273
771.750977	13926.041016
770.575195	14258.606445
769.398438	14178.867188
768.220703	14241.470703
767.043945	14461.186523
765.866211	14712.645508
764.688477	14923.660156
763.510742	14875.685547
762.332031	14910.472656
761.153320	15524.301758
759.974609	16161.175781
758.794922	16681.150391
757.616211	17648.128906
756.436523	18398.511719
755.255859	19826.523438
754.076172	21730.472656
752.895508	23870.730469
751.714844	26454.621094
750.533203	29115.646484
749.352539	32228.330078
748.170898	35189.363281
746.988281	37266.968750
745.806641	38836.070313
744.624023	39446.664063
743.441406	39260.066406
742.258789	38574.800781
741.075195	37820.125000
739.891602	36706.687500
738.708008	36159.742188
737.523438	35925.531250
736.339844	35311.460938
735.155273	34748.320313
733.969727	33995.539063
732.785156	32741.044922
731.599609	30930.353516
730.414063	28831.626953
729.227539	26409.224609
728.041992	24150.212891
726.855469	22290.468750
725.667969	20589.568359
724.481445	19001.068359
723.293945	17960.751953
722.106445	16992.486328
720.918945	16727.609375
719.730469	16060.960938
718.541992	15567.119141
717.353516	15218.621094
716.164063	14901.823242
714.975586	14700.791016
713.786133	14508.257813
712.595703	14202.343750
711.406250	14268.405273
710.215820	14225.219727
709.025391	14158.956055
707.833984	13933.172852
706.642578	14053.800781
705.451172	14130.306641
704.259766	14057.827148
703.068359	14092.346680
701.875977	14120.558594
700.683594	14234.709961
699.490234	14713.501953
698.297852	14902.898438
697.104492	15647.375000
695.910156	16246.988281
694.716797	16626.453125
693.522461	16898.970703
692.328125	17108.572266
691.132813	16972.800781
689.938477	17006.550781
688.743164	17038.191406
687.547852	16519.851563
686.351563	16290.257813
685.155273	15826.670898
683.958984	15545.097656
682.762695	15577.033203
681.565430	15212.095703
680.368164	14901.621094
679.170898	14845.992188
677.973633	14704.810547
676.775391	14814.108398
675.577148	14758.535156
674.378906	14899.054688
673.179688	14818.461914
671.980469	14496.060547
670.781250	14480.210938
669.581055	14451.864258
668.381836	14090.182617
667.181641	14368.128906
665.980469	14025.373047
664.780273	14032.546875
663.579102	13852.381836
662.377930	13913.697266
661.175781	13887.599609
659.973633	13838.633789
658.771484	13870.791992
657.569336	14092.132813
656.367188	14009.891602
655.164063	14401.503906
653.960938	14626.720703
652.756836	14426.010742
651.552734	14715.494141
650.348633	14961.242188
649.144531	15252.541016
647.939453	15273.920898
646.735352	15712.321289
645.529297	15712.839844
644.324219	15800.457031
643.118164	16072.561523
641.912109	15894.726563
640.706055	15665.163086
639.499023	15539.299805
638.292969	15274.708008
637.084961	14989.528320
635.877930	14936.371094
634.669922	14742.479492
633.461914	14492.797852
632.253906	14162.540039
631.044922	14163.401367
629.836914	14104.288086
628.626953	13863.251953
627.417969	13886.917969
626.208008	13993.238281
624.998047	13551.973633
623.788086	13804.984375
622.577148	13682.007813
621.366211	13647.871094
620.155273	13642.648438
618.944336	13449.624023
617.732422	13584.752930
616.520508	13274.248047
615.308594	13254.677734
614.095703	13249.546875
612.882813	13281.523438
611.669922	13059.992188
610.457031	13192.957031
609.243164	13078.665039
608.029297	13100.350586
606.815430	13157.028320
605.600586	13201.327148
604.385742	13101.541992
603.170898	13298.091797
601.955078	13050.217773
600.740234	13273.422852
599.524414	13186.045898
598.307617	13203.548828
597.091797	13379.291016
595.875000	13207.705078
594.658203	13381.308594
593.440430	13300.165039
592.222656	13264.231445
591.004883	13185.203125
589.787109	13336.072266
588.568359	13047.773438
587.349609	13245.785156
586.130859	13045.828125
584.912109	13048.955078
583.692383	12924.982422
582.472656	12956.828125
581.251953	13050.126953
580.032227	13018.422852
578.811523	13130.095703
577.589844	13335.904297
576.369141	13439.261719
575.147461	13499.590820
573.925781	13539.429688
572.703125	13808.366211
571.481445	13974.916016
570.258789	14427.651367
569.035156	14765.696289
567.812500	14952.343750
566.588867	15087.821289
565.365234	15335.589844
564.140625	15654.726563
562.916992	15747.063477
561.692383	15823.026367
560.466797	15643.833984
559.242188	15385.145508
558.016602	15399.936523
556.791016	15090.434570
555.564453	14734.177734
554.337891	14424.972656
553.111328	14140.367188
551.884766	13900.720703
550.657227	13459.505859
549.429688	13364.731445
548.202148	13280.180664
546.974609	12971.738281
545.746094	13068.455078
544.517578	13024.726563
543.288086	13080.699219
542.058594	12973.936523
540.829102	12948.557617
539.599609	12878.466797
538.370117	12857.185547
537.139648	12844.041016
535.909180	12857.311523
534.677734	12825.892578
533.446289	12837.128906
532.214844	12746.855469
530.983398	12624.149414
529.750977	12787.607422
528.519531	12634.517578
527.286133	12597.105469
526.053711	12677.317383
524.820313	12755.463867
523.586914	12551.851563
522.353516	12636.068359
521.119141	12778.995117
519.884766	12808.433594
518.650391	12694.089844
517.415039	12591.946289
516.179688	12441.273438
514.944336	12614.427734
513.708984	12544.739258
