#Wave		#Intensity
1585.210938	5472.342285
1584.209961	5402.408203
1583.208984	5471.208496
1582.208008	5387.686523
1581.206055	5389.066406
1580.204102	5288.126953
1579.202148	5326.952637
1578.200195	5385.717773
1577.198242	5349.686035
1576.195313	5443.331055
1575.192383	5374.893066
1574.189453	5366.302246
1573.186523	5407.553711
1572.182617	5256.947266
1571.178711	5335.568359
1570.174805	5434.079590
1569.170898	5405.565430
1568.166992	5359.637207
1567.162109	5234.083984
1566.158203	5377.324219
1565.153320	5336.405273
1564.147461	5290.528320
1563.142578	5321.761230
1562.136719	5156.563965
1561.130859	5418.988281
1560.125000	5296.088379
1559.119141	5347.171387
1558.113281	5363.454102
1557.106445	5367.311035
1556.099609	5472.977051
1555.092773	5489.222656
1554.084961	5495.532715
1553.078125	5707.817871
1552.070313	5535.437012
1551.062500	5534.290527
1550.054688	5476.102051
1549.045898	5720.449219
1548.038086	5694.474121
1547.029297	5785.002441
1546.020508	5858.146484
1545.011719	5824.725586
1544.001953	5885.445801
1542.992188	6072.443359
1541.982422	5977.097168
1540.972656	5963.482422
1539.962891	6029.072266
1538.952148	6087.211426
1537.942383	6046.367676
1536.931641	5943.704590
1535.919922	6108.160645
1534.909180	6092.061523
1533.897461	5902.934570
1532.886719	5914.069824
1531.874023	5749.766113
1530.862305	5743.634766
1529.850586	5658.470215
1528.837891	5830.153809
1527.825195	5656.127441
1526.812500	5583.374512
1525.799805	5441.552246
1524.786133	5561.324219
1523.772461	5555.238770
1522.758789	5433.240234
1521.745117	5308.826172
1520.731445	5426.060059
1519.716797	5348.528809
1518.702148	5335.100098
1517.687500	5269.937988
1516.672852	5244.214355
1515.657227	5208.649902
1514.642578	5251.891113
1513.626953	5341.886230
1512.610352	5303.862305
1511.594727	5297.842285
1510.579102	5173.736816
1509.562500	5310.406250
1508.545898	5395.376465
1507.529297	5273.785645
1506.511719	5316.939453
1505.494141	5355.160156
1504.477539	5265.594727
1503.458984	5298.896484
1502.441406	5229.028320
1501.423828	5387.558105
1500.405273	5302.969238
1499.386719	5260.143066
1498.368164	5271.323242
1497.348633	5383.094727
1496.330078	5357.448730
1495.310547	5383.316895
1494.291016	5396.913574
1493.271484	5319.797852
1492.250977	5330.950684
1491.231445	5307.791504
1490.210938	5394.891113
1489.190430	5349.682129
1488.168945	5304.491699
1487.148438	5315.634766
1486.126953	5294.949219
1485.105469	5293.851563
1484.083984	5554.578125
1483.061523	5279.424805
1482.040039	5361.492188
1481.017578	5328.590332
1479.995117	5332.375488
1478.971680	5485.268066
1477.949219	5484.130371
1476.925781	5504.983887
1475.902344	5669.959473
1474.878906	5627.263184
1473.855469	5621.212402
1472.831055	5620.046387
1471.806641	5655.493652
1470.782227	5751.935059
1469.757813	5755.622070
1468.733398	5795.896973
1467.708008	5902.003906
1466.682617	5986.121094
1465.657227	5975.127930
1464.631836	6193.247559
1463.605469	6230.951660
1462.579102	6224.786133
1461.552734	6403.744141
1460.526367	6482.780273
1459.500000	6471.695313
1458.472656	6760.033203
1457.445313	6744.027344
1456.417969	6732.894531
1455.390625	6721.765625
1454.362305	6603.621094
1453.334961	6682.498047
1452.306641	6489.041016
1451.277344	6512.000977
1450.249023	6372.124512
1449.219727	6331.925293
1448.191406	6221.293945
1447.162109	6042.704102
1446.131836	6029.307617
1445.102539	5882.391113
1444.072266	5895.732422
1443.041992	5841.119629
1442.011719	5735.578613
1440.981445	5722.258301
1439.950195	5599.809082
1438.918945	5717.455566
1437.887695	5590.208984
1436.856445	5513.912598
1435.825195	5566.076660
1434.792969	5497.084473
1433.760742	5512.896973
1432.728516	5443.943359
1431.696289	5479.129395
1430.663086	5473.148438
1429.629883	5399.405273
1428.596680	5422.479004
1427.563477	5322.165527
1426.530273	5246.079590
1425.496094	5317.533203
1424.461914	5224.556152
1423.427734	5242.806152
1422.393555	5244.131836
1421.358398	5327.605957
1420.323242	5319.250488
1419.288086	5289.161621
1418.252930	5413.622070
1417.217773	5308.687012
1416.181641	5367.922852
1415.145508	5161.688965
1414.109375	5300.546875
1413.073242	5200.545898
1412.036133	5184.993164
1411.000000	5352.691895
1409.962891	5402.199707
1408.924805	5304.669922
1407.887695	5291.516602
1406.849609	5360.278320
1405.812500	5424.194336
1404.773438	5565.142090
1403.735352	5520.645508
1402.697266	5733.727539
1401.658203	5807.137207
1400.619141	5726.524902
1399.580078	5722.925781
1398.540039	5781.859863
1397.500977	5797.486328
1396.460938	5810.702148
1395.420898	5893.616211
1394.380859	5755.410156
1393.339844	5600.443848
1392.298828	5656.925781
1391.257813	5715.785156
1390.216797	5673.773926
1389.175781	5595.770996
1388.133789	5717.007813
1387.091797	5905.381836
1386.049805	5635.451172
1385.007813	5672.652344
1383.964844	5719.429688
1382.922852	5898.053711
1381.879883	5820.115723
1380.835938	5830.882813
1379.792969	5875.190430
1378.749023	5976.973145
1377.706055	5918.242676
1376.661133	6089.415527
1375.617188	5978.015625
1374.573242	5895.384277
1373.528320	6133.459961
1372.483398	6084.326660
1371.438477	6142.856445
1370.392578	6067.433105
1369.347656	6073.337402
1368.301758	6131.832031
1367.255859	6073.187500
1366.208984	6059.969238
1365.163086	5982.250977
1364.116211	5964.279297
1363.069336	6015.569336
1362.022461	6164.727539
1360.974609	5955.761719
1359.927734	6143.054688
1358.879883	5974.743164
1357.832031	6119.012695
1356.783203	6122.501465
1355.735352	6135.526855
1354.686523	6122.321289
1353.637695	6059.065918
1352.588867	6160.269043
1351.539063	6299.550781
1350.490234	6312.523438
1349.440430	6413.608887
1348.390625	6536.081055
1347.339844	6668.023926
1346.290039	6709.467285
1345.239258	6824.660645
1344.188477	6870.811035
1343.137695	6795.633789
1342.085938	7169.947266
1341.034180	7130.401367
1339.982422	6981.525879
1338.930664	7243.862793
1337.878906	7223.333984
1336.826172	7392.861328
1335.773438	7203.676270
1334.720703	7297.148438
1333.667969	7269.500977
1332.614258	7127.932129
1331.561523	7207.120605
1330.507813	7191.371094
1329.453125	7263.395996
1328.399414	7079.255859
1327.344727	6942.615234
1326.290039	6931.673828
1325.235352	6795.120117
1324.180664	6860.041016
1323.125000	6666.700195
1322.070313	6688.984863
1321.014648	6727.836426
1319.958008	6510.967773
1318.902344	6448.052734
1317.845703	6477.462402
1316.789063	6407.481934
1315.732422	6276.023926
1314.675781	6279.433105
1313.618164	6301.757813
1312.560547	6205.865723
1311.502930	6043.831543
1310.445313	6066.190430
1309.386719	6024.747559
1308.329102	6073.083984
1307.270508	5800.214844
1306.210938	5718.713379
1305.152344	5781.246094
1304.092773	5621.896973
1303.033203	5592.396484
1301.973633	5574.703125
1300.914063	5483.898438
1299.853516	5494.533203
1298.792969	5495.731934
1297.732422	5551.145020
1296.671875	5611.247559
1295.611328	5567.652344
1294.549805	5552.343262
1293.488281	5553.526855
1292.426758	5641.833008
1291.364258	5525.286621
1290.302734	5451.155273
1289.240234	5522.953125
1288.177734	5448.853027
1287.114258	5421.828125
1286.051758	5512.399414
1284.988281	5551.205078
1283.924805	5467.756836
1282.861328	5443.099121
1281.796875	5554.735352
1280.732422	5551.211426
1279.667969	5578.222656
1278.603516	5483.113770
1277.539063	5613.426758
1276.473633	5518.350098
1275.408203	5613.398926
1274.342773	5760.024414
1273.277344	5718.927734
1272.210938	5705.990723
1271.145508	5664.921875
1270.079102	5689.509277
1269.011719	5589.866699
1267.945313	5558.220215
1266.877930	5542.986328
1265.810547	5511.362793
1264.743164	5620.258301
1263.674805	5406.010742
1262.607422	5428.272949
1261.539063	5389.677246
1260.470703	5255.166504
1259.401367	5230.659180
1258.333008	5255.276855
1257.263672	5303.266113
1256.194336	5215.642578
1255.125000	5221.547852
1254.054688	5150.334961
1252.985352	5214.658691
1251.915039	5183.186035
1250.843750	5060.648926
1249.773438	5045.564941
1248.702148	5095.848633
1247.630859	5115.770996
1246.559570	5030.683594
1245.488281	4980.625000
1244.416016	4995.893066
1243.343750	4959.853027
1242.271484	5061.378418
1241.199219	4985.714844
1240.125977	5000.966797
1239.053711	5004.562988
1237.980469	4975.545898
1236.906250	4937.225098
1235.833008	5010.683105
1234.758789	5112.043457
1233.684570	4924.764160
1232.610352	4928.369141
1231.536133	4957.562988
1230.460938	5033.262207
1229.385742	4848.482422
1228.310547	4912.547363
1227.235352	4925.447266
1226.159180	4917.425781
1225.083008	5006.991211
1224.006836	4994.309082
1222.930664	4967.697266
1221.853516	4989.857422
1220.777344	4967.900391
1219.700195	5066.641602
1218.622070	5026.112793
1217.544922	4980.960938
1216.466797	5079.634766
1215.388672	5111.016113
1214.310547	4998.638184
1213.232422	4932.666992
1212.153320	5093.837891
1211.074219	5053.360840
1209.995117	5059.230469
1208.916016	5190.161621
1207.835938	5253.886719
1206.755859	5113.862793
1205.675781	5212.293945
1204.595703	5181.097168
1203.514648	5221.632324
1202.434570	5074.794434
1201.353516	5057.520996
1200.271484	5114.240234
1199.190430	5147.818848
1198.108398	5114.362305
1197.026367	5097.093262
1195.944336	5033.630371
1194.862305	5189.603027
1193.779297	5043.019531
1192.696289	4935.744629
1191.613281	4906.990234
1190.530273	4892.092773
1189.446289	4987.942383
1188.362305	4857.703613
1187.278320	4810.540039
1186.194336	4825.647461
1185.109375	4801.561035
1184.024414	4858.146973
1182.939453	4859.408691
1181.854492	4800.774902
1180.768555	4873.444824
1179.683594	4819.437988
1178.597656	4781.568848
1177.510742	4803.558594
1176.424805	4751.900879
1175.337891	4711.769043
1174.250977	4795.862793
1173.164063	4781.034180
1172.077148	4789.203613
1170.989258	4847.939941
1169.901367	4745.776855
1168.813477	4625.275879
1167.724609	4840.218262
1166.636719	4765.682129
1165.547852	4847.320801
1164.458984	4768.223145
1163.369141	4698.339844
1162.280273	4844.191406
1161.190430	4746.790039
1160.100586	4780.174316
1159.010742	4873.167969
1157.919922	4856.068848
1156.829102	4859.606934
1155.738281	4934.188477
1154.647461	4878.133789
1153.555664	4762.542969
1152.464844	4892.062988
1151.373047	4868.109863
1150.280273	4857.902344
1149.188477	4964.428711
1148.095703	4894.708008
1147.002930	4799.850586
1145.910156	4739.344238
1144.817383	4710.878906
1143.723633	4730.438965
1142.629883	4852.853027
1141.536133	4719.253906
1140.441406	4839.332031
1139.347656	4740.058594
1138.252930	4720.763184
1137.158203	4753.993164
1136.062500	4775.794434
1134.967773	4706.290039
1133.872070	4639.096680
1132.776367	4738.475098
1131.679688	4860.619141
1130.583984	4843.604492
1129.487305	4660.162109
1128.390625	4752.609863
1127.292969	4819.948730
1126.196289	4787.006836
1125.098633	4801.915527
1124.000977	4705.222168
1122.903320	4752.019043
1121.804688	4817.006836
1120.706055	4629.332520
1119.607422	4723.899414
1118.508789	4761.549805
1117.409180	4664.988281
1116.310547	4641.236328
1115.210938	4569.750488
1114.110352	4673.317871
1113.010742	4629.125488
1111.910156	4671.289063
1110.809570	4570.327637
1109.708984	4655.634277
1108.607422	4695.493164
1107.506836	4701.283203
1106.405273	4709.340332
1105.303711	4588.056152
1104.201172	4648.310547
1103.098633	4663.176270
1101.996094	4752.866211
1100.893555	4504.719238
1099.791016	4605.736328
1098.687500	4595.669922
1097.583984	4576.544922
1096.480469	4614.056152
1095.376953	4590.405273
1094.272461	4702.612793
1093.167969	4771.761719
1092.063477	4653.038574
1090.958008	4683.702148
1089.853516	4675.895508
1088.748047	4681.661133
1087.642578	4628.633789
1086.536133	4693.184570
1085.430664	4737.365234
1084.324219	4706.956055
1083.217773	4739.817383
1082.110352	4738.783691
1081.003906	4692.584961
1079.896484	4833.797852
1078.789063	4884.659180
1077.680664	4856.511719
1076.573242	4783.251465
1075.464844	4847.623535
1074.356445	4943.541504
1073.247070	4915.403809
1072.138672	4828.666992
1071.029297	4726.191406
1069.919922	4776.983887
1068.809570	4820.995605
1067.700195	4754.624512
1066.589844	4749.081055
1065.479492	4725.528809
1064.368164	4801.022949
1063.257813	4671.703125
1062.146484	4600.935059
1061.035156	4644.915039
1059.922852	4560.689941
1058.811523	4676.606445
1057.699219	4713.795898
1056.586914	4577.920410
1055.473633	4585.904785
1054.361328	4569.174805
1053.248047	4563.681152
1052.134766	4567.171387
1051.021484	4487.597656
1049.907227	4491.102539
1048.792969	4674.120117
1047.678711	4596.817383
1046.564453	4562.164063
1045.449219	4579.102539
1044.333984	4427.885254
1043.218750	4523.296875
1042.103516	4520.062500
1040.987305	4617.650879
1039.871094	4531.516602
1038.754883	4440.940430
1037.638672	4558.632324
1036.521484	4456.896973
1035.404297	4608.103027
1034.287109	4593.664551
1033.169922	4465.142578
1032.051758	4470.870117
1030.933594	4563.800781
1029.815430	4527.027344
1028.697266	4557.321777
1027.578125	4661.344238
1026.458984	4481.590332
1025.339844	4489.538086
1024.220703	4508.646973
1023.100586	4489.792969
1021.980469	4531.213867
1020.860352	4559.226563
1019.740234	4569.377441
1018.619141	4595.137695
1017.498047	4473.695801
1016.376953	4457.101563
1015.255859	4467.264160
1014.133789	4401.646973
1013.011719	4496.487793
1011.889648	4573.464844
1010.767578	4476.685059
1009.644531	4600.393066
1008.521484	4474.708496
1007.398438	4547.169434
1006.274414	4601.795898
1005.151367	4451.720703
1004.027344	4610.883301
1002.902344	4549.822754
1001.778320	4415.420410
1000.653320	4570.038574
999.528320	4564.583496
998.403320	4521.359863
997.278320	4495.924805
996.152344	4497.150879
995.026367	4584.968750
993.900391	4555.095703
992.773438	4653.958008
991.646484	4528.671875
990.519531	4521.013672
989.392578	4617.598145
988.265625	4558.923340
987.137695	4631.070313
986.009766	4536.955566
984.881836	4631.233398
983.752930	4561.528809
982.624023	4746.570313
981.495117	4670.227051
980.366211	4706.828125
979.236328	4632.739746
978.106445	4587.452637
976.976563	4626.258789
975.846680	4731.406250
974.715820	4524.688477
973.585938	4572.325195
972.454102	4542.573242
971.323242	4492.943848
970.191406	4467.640625
969.060547	4625.697754
967.927734	4425.901367
966.795898	4473.494629
965.663086	4432.763672
964.530273	4495.782715
963.397461	4435.205078
962.264648	4447.455078
961.130859	4453.082031
959.997070	4575.576660
958.863281	4481.964355
957.729492	4463.333496
956.594727	4504.208496
955.459961	4503.205566
954.325195	4552.863281
953.189453	4457.156250
952.053711	4343.878418
950.917969	4459.572266
949.782227	4502.591797
948.646484	4497.187500
947.509766	4568.774902
946.373047	4459.994629
945.235352	4540.352051
944.098633	4556.924805
942.960938	4454.812012
941.823242	4409.873047
940.685547	4527.513184
939.546875	4511.128906
938.408203	4448.639648
937.269531	4570.582031
936.129883	4519.080566
934.991211	4498.322266
933.851563	4479.766602
932.711914	4676.164551
931.571289	4591.791504
930.431641	4619.265137
929.291016	4528.366211
928.149414	4617.199219
927.008789	4633.693359
925.867188	4586.658691
924.725586	4552.784180
923.583984	4597.742676
922.441406	4566.068359
921.299805	4451.248535
920.157227	4548.708496
919.013672	4405.505859
917.871094	4411.080078
916.727539	4353.243652
915.583984	4492.170410
914.439453	4327.252441
913.295898	4420.237305
912.151367	4384.293945
911.006836	4346.182617
909.861328	4404.163086
908.716797	4328.952148
907.571289	4404.370117
906.424805	4440.476563
905.279297	4360.943848
904.132813	4322.886719
902.986328	4435.306152
901.839844	4362.367188
900.692383	4461.649414
899.545898	4371.303711
898.398438	4339.820801
897.250000	4408.545898
896.102539	4405.377441
894.954102	4426.159180
893.805664	4377.277344
892.656250	4463.340332
891.507813	4368.781738
890.358398	4409.127930
889.208984	4397.262695
888.058594	4470.196777
886.908203	4403.979004
885.758789	4405.161133
884.607422	4334.641113
883.457031	4309.770508
882.305664	4319.658691
881.154297	4377.310547
880.002930	4339.421387
878.850586	4429.596680
877.698242	4391.711426
876.545898	4358.181641
875.393555	4333.342285
874.240234	4373.563965
873.086914	4337.892090
871.933594	4232.879883
870.780273	4353.270996
869.625977	4313.293457
868.471680	4307.988770
867.317383	4216.068848
866.162109	4269.240723
865.007813	4292.085938
863.852539	4321.412109
862.696289	4331.253906
861.541016	4267.549316
860.384766	4279.560547
859.228516	4246.163574
858.072266	4186.843262
856.915039	4283.143066
855.757813	4258.409180
854.600586	4229.366211
853.442383	4219.771484
852.285156	4268.476074
851.126953	4343.061035
849.968750	4311.865234
848.809570	4209.482422
847.650391	4253.829590
846.491211	4203.264648
845.332031	4335.993652
844.171875	4294.054688
843.012695	4206.875977
841.851563	4264.099609
840.691406	4316.988770
839.530273	4290.166504
838.369141	4250.436523
837.208008	4342.040527
836.046875	4226.988281
834.884766	4277.672363
833.722656	4240.131348
832.560547	4333.803711
831.397461	4369.375977
830.234375	4383.433594
829.071289	4266.376465
827.908203	4218.134766
826.744141	4247.254395
825.580078	4235.551270
824.416016	4363.431641
823.251953	4388.203613
822.086914	4279.888184
820.921875	4311.104980
819.756836	4254.345215
818.590820	4221.205078
817.425781	4329.612305
816.259766	4208.567871
815.092773	4331.932129
813.926758	4350.234375
812.759766	4216.411621
811.592773	4286.139160
810.424805	4199.503906
809.257813	4262.779785
808.089844	4169.767090
806.920898	4295.081543
805.752930	4253.453125
804.583984	4158.365723
803.415039	4206.606934
802.246094	4233.445313
801.076172	4245.307129
799.906250	4329.826172
798.736328	4215.598145
797.566406	4146.281250
796.395508	4149.607910
795.224609	4178.555664
794.053711	4245.914063
792.881836	4323.912109
791.710938	4267.450195
790.538086	4129.950195
789.366211	4350.814941
788.194336	4326.368164
787.021484	4353.095215
785.848633	4352.102539
784.674805	4321.278320
783.500977	4390.593262
782.327148	4283.100098
781.153320	4326.839355
779.979492	4208.764160
778.804688	4314.222656
777.629883	4308.981934
776.454102	4299.488770
775.279297	4289.999512
774.103516	4291.146484
772.927734	4379.456055
771.750977	4146.780273
770.575195	4264.832031
769.398438	4210.745117
768.220703	4303.239258
767.043945	4357.467773
765.866211	4311.888184
764.688477	4380.946289
763.510742	4360.846191
762.332031	4298.323242
761.153320	4488.239258
759.974609	4601.725586
758.794922	4564.630859
757.616211	4578.424316
756.436523	4704.525879
755.255859	4834.807129
754.076172	5013.746582
752.895508	5266.723145
751.714844	5437.012207
750.533203	5865.463867
749.352539	6234.464355
748.170898	6666.768066
746.988281	6849.270508
745.806641	6974.589355
744.624023	7053.335449
743.441406	7263.101563
742.258789	7339.631348
741.075195	7133.001953
739.891602	7486.245605
738.708008	7378.935547
737.523438	7525.041992
736.339844	7400.883789
735.155273	7397.076172
733.969727	7294.102051
732.785156	6982.337402
731.599609	6683.369141
730.414063	6289.654785
729.227539	5993.089844
728.041992	5599.713379
726.855469	5276.049805
725.667969	5140.019043
724.481445	4884.002930
723.293945	4802.869141
722.106445	4709.141602
720.918945	4564.945313
719.730469	4547.063965
718.541992	4533.397461
717.353516	4391.442871
716.164063	4295.812500
714.975586	4315.848145
713.786133	4186.650391
712.595703	4170.979980
711.406250	4258.253418
710.215820	4208.968262
709.025391	4149.206055
707.833984	4129.358398
706.642578	4138.903320
705.451172	4106.476074
704.259766	4111.825195
703.068359	4224.138672
701.875977	4233.651367
700.683594	4253.641602
699.490234	4342.788574
698.297852	4239.111816
697.104492	4351.265137
695.910156	4494.783691
694.716797	4468.621094
693.522461	4601.578125
692.328125	4460.284668
691.132813	4551.330566
689.938477	4472.875488
688.743164	4488.578125
687.547852	4376.715332
686.351563	4394.522949
685.155273	4328.715820
683.958984	4455.188965
682.762695	4310.007813
681.565430	4267.240723
680.368164	4349.786621
679.170898	4210.992188
677.973633	4278.901855
676.775391	4169.402344
675.577148	4249.807129
674.378906	4298.887207
673.179688	4185.287598
671.980469	4234.358887
670.781250	4197.948242
669.581055	4194.895996
668.381836	4287.682129
667.181641	4165.882813
665.980469	4223.230469
664.780273	4086.927246
663.579102	4217.118652
662.377930	4141.229004
661.175781	4171.481445
659.973633	4103.956543
658.771484	4215.306641
657.569336	4102.062012
656.367188	4302.741211
655.164063	4253.950684
653.960938	4269.589844
652.756836	4281.066895
651.552734	4325.765625
650.348633	4310.232910
649.144531	4369.433594
647.939453	4391.252441
646.735352	4311.395996
645.529297	4432.784180
644.324219	4404.799805
643.118164	4524.036133
641.912109	4616.269531
640.706055	4470.135742
639.499023	4479.461914
638.292969	4476.355469
637.084961	4249.586914
635.877930	4339.705566
634.669922	4309.722168
633.461914	4254.918457
632.253906	4251.865234
631.044922	4209.511230
629.836914	4163.040039
628.626953	4151.739258
627.417969	4138.375977
626.208008	4205.618164
624.998047	4202.579102
623.788086	4247.051758
622.577148	4109.765137
621.366211	4094.361328
620.155273	4099.606445
618.944336	4032.617188
617.732422	4077.076416
616.520508	4057.567383
615.308594	3984.446289
614.095703	4086.617188
612.882813	4098.039551
611.669922	4020.837158
610.457031	3997.241455
609.243164	3988.076172
608.029297	3995.390625
606.815430	4072.707520
605.600586	4001.774658
604.385742	4085.227783
603.170898	4092.511963
601.955078	4009.280273
600.740234	3985.728760
599.524414	3972.468750
598.307617	3992.104980
597.091797	4036.394531
595.875000	3984.091309
594.658203	4020.144531
593.440430	4070.557129
592.222656	4012.121826
591.004883	3976.294434
589.787109	3979.477539
588.568359	4027.799805
587.349609	3914.040283
586.130859	3950.049316
584.912109	3938.881592
583.692383	3944.118408
582.472656	4004.688721
581.251953	4022.201416
580.032227	3939.327393
578.811523	4010.096191
577.589844	4037.832520
576.369141	4065.555908
575.147461	4117.825684
573.925781	4045.255127
572.703125	4158.875488
571.481445	4031.107910
570.258789	4271.451660
569.035156	4102.831543
567.812500	4146.843262
566.588867	4229.657227
565.365234	4314.475586
564.140625	4380.872559
562.916992	4277.761719
561.692383	4213.485352
560.466797	4245.163086
559.242188	4266.623535
558.016602	4210.553711
556.791016	4125.956055
555.564453	4110.725586
554.337891	4026.189941
553.111328	4133.275391
551.884766	4091.563477
550.657227	4096.725586
549.429688	3926.729980
548.202148	3938.035889
546.974609	4120.338379
545.746094	3972.843018
544.517578	3882.389893
543.288086	4021.857178
542.058594	4037.194580
540.829102	4101.325684
539.599609	4019.057373
538.370117	3938.859375
537.139648	4013.127686
535.909180	3989.849854
534.677734	3923.930908
533.446289	4026.578125
532.214844	3883.537842
530.983398	3969.909424
529.750977	3904.055420
528.519531	3982.266846
527.286133	3930.637695
526.053711	4006.778564
524.820313	3936.921631
523.586914	3974.516357
522.353516	4083.014404
521.119141	4086.118164
519.884766	4109.473633
518.650391	4084.220703
517.415039	4058.979248
516.179688	3999.342041
514.944336	3994.366455
513.708984	4023.784180
