#Wave		#Intensity
2109.224609	7821.612305
2107.712891	7834.843750
2106.201172	7760.390625
2104.687500	7654.558105
2103.175781	7771.911621
2101.662109	7778.495117
2100.150391	7783.423340
2098.636719	7798.260254
2097.123047	7780.062012
2095.607422	7794.893555
2094.093750	7702.419922
2092.578125	7763.473145
2091.064453	7770.048340
2089.548828	7661.143066
2088.033203	7840.917969
2086.517578	7679.277344
2085.000000	7783.133789
2083.484375	7674.319824
2081.966797	7631.469238
2080.449219	7651.244141
2078.931641	7764.900879
2077.414063	7799.460449
2075.894531	7624.900391
2074.376953	7728.612793
2072.857422	7735.179199
2071.337891	7718.707031
2069.818359	7670.985840
2068.298828	7649.600098
2066.777344	7631.512695
2065.257813	7687.413574
2063.736328	7559.200684
2062.214844	7685.755371
2060.693359	7725.179199
2059.171875	7583.899414
2057.648438	7720.221191
2056.126953	7498.550293
2054.603516	7564.245117
2053.080078	7565.905273
2051.556641	7595.458984
2050.033203	7789.049316
2048.507813	7700.452148
2046.984375	7623.372070
2045.458984	7793.879395
2043.933594	7723.368652
2042.408203	7688.939941
2040.882813	7679.101563
2039.355469	7646.335449
2037.830078	7703.655273
2036.302734	7702.006836
2034.775391	7628.332031
2033.248047	7623.426758
2031.718750	7575.980469
2030.191406	7620.166992
2028.662109	7489.326660
2027.134766	7651.249023
2025.605469	7504.109863
2024.076172	7613.654297
2022.544922	7670.858887
2021.015625	7610.402344
2019.484375	7525.469238
2017.955078	7598.986816
2016.423828	7447.147949
2014.892578	7504.326660
2013.359375	7590.857910
2011.828125	7429.327637
2010.294922	7590.882324
2008.761719	7478.352051
2007.230469	7595.798340
2005.695313	7509.400391
2004.162109	7646.350098
2002.628906	7592.571289
2001.093750	7592.582520
1999.558594	7462.276855
1998.023438	7499.773438
1996.488281	7610.526367
1994.953125	7416.811035
1993.417969	7540.554688
1991.880859	7496.641602
1990.343750	7522.702637
1988.806641	7628.452637
1987.269531	7491.855469
1985.732422	7487.009766
1984.193359	7521.177734
1982.656250	7422.068848
1981.117188	7498.480957
1979.578125	7563.488770
1978.039063	7607.355957
1976.500000	7522.926270
1974.958984	7500.222656
1973.417969	7511.613281
1971.878906	7539.226074
1970.337891	7487.329590
1968.796875	7521.423828
1967.253906	7578.207520
1965.712891	7589.568359
1964.169922	7552.294434
1962.626953	7560.414551
1961.083984	7579.873535
1959.541016	7450.286133
1957.998047	7460.041992
1956.455078	7434.168945
1954.910156	7414.782715
1953.365234	7596.111816
1951.820313	7560.516602
1950.275391	7651.133789
1948.730469	7537.897949
1947.183594	7494.251465
1945.638672	7403.732910
1944.091797	7468.441406
1942.544922	7379.582520
1940.998047	7510.518555
1939.449219	7405.533203
1937.902344	7483.107422
1936.353516	7434.690918
1934.804688	7381.451660
1933.255859	7454.138184
1931.707031	7602.642578
1930.158203	7528.426270
1928.607422	7554.254395
1927.058594	7478.466309
1925.507813	7486.556641
1923.957031	7504.316406
1922.406250	7349.610352
1920.853516	7423.790527
1919.302734	7443.162598
1917.750000	7312.728027
1916.197266	7422.296875
1914.644531	7494.788086
1913.091797	7380.521973
1911.539063	7506.100098
1909.984375	7424.060059
1908.431641	7427.314941
1906.876953	7457.910645
1905.322266	7337.339844
1903.767578	7485.300781
1902.210938	7364.774902
1900.656250	7424.282227
1899.099609	7340.772949
1897.542969	7389.015625
1895.986328	7381.028809
1894.429688	7438.876465
1892.873047	7413.223633
1891.314453	7397.211914
1889.755859	7276.906250
1888.199219	7426.169434
1886.640625	7390.916504
1885.080078	7325.210449
1883.521484	7407.031250
1881.960938	7500.037109
1880.402344	7357.425293
1878.841797	7386.312500
1877.281250	7339.898438
1875.720703	7359.167480
1874.158203	7402.446289
1872.597656	7338.447266
1871.035156	7332.095215
1869.472656	7356.148926
1867.910156	7340.195801
1866.347656	7444.213867
1864.783203	7418.653320
1863.220703	7356.329102
1861.656250	7373.957520
1860.091797	7316.463379
1858.527344	7311.722168
1856.962891	7457.147949
1855.396484	7390.088867
1853.832031	7305.492676
1852.265625	7386.966797
1850.699219	7410.945313
1849.132813	7323.205566
1847.566406	7229.121094
1845.998047	7398.274414
1844.431641	7434.987305
1842.863281	7454.145020
1841.294922	7234.174805
1839.726563	7393.620605
1838.156250	7342.661621
1836.587891	7455.815918
1835.017578	7377.787598
1833.449219	7446.297363
1831.878906	7338.053223
1830.306641	7398.583008
1828.736328	7330.180176
1827.166016	7382.729980
1825.593750	7462.300293
1824.021484	7319.175781
1822.449219	7250.846191
1820.876953	7495.728027
1819.304688	7255.731445
1817.730469	7322.530273
1816.158203	7287.620117
1814.583984	7430.627441
1813.009766	7422.706055
1811.435547	7349.689941
1809.859375	7313.214844
1808.285156	7295.799805
1806.708984	7376.769531
1805.132813	7370.452637
1803.556641	7449.786133
1801.980469	7387.954590
1800.404297	7411.761230
1798.826172	7378.494629
1797.248047	7440.325684
1795.671875	7421.326172
1794.093750	7430.847168
1792.513672	7457.784668
1790.935547	7358.039551
1789.355469	7453.052246
1787.777344	7334.355957
1786.197266	7410.344238
1784.617188	7362.899414
1783.035156	7457.829590
1781.455078	7374.021973
1779.873047	7411.990723
1778.292969	7552.689941
1776.710938	7370.930176
1775.128906	7511.578125
1773.544922	7521.049316
1771.962891	7424.697266
1770.378906	7497.343750
1768.794922	7595.219238
1767.212891	7538.371094
1765.626953	7642.507813
1764.042969	7601.449707
1762.458984	7552.521973
1760.873047	7571.427734
1759.287109	7579.288086
1757.701172	7684.880371
1756.115234	7583.964844
1754.529297	7741.509766
1752.941406	7705.214844
1751.355469	7697.286133
1749.767578	7730.302734
1748.179688	7690.883301
1746.591797	7684.535156
1745.001953	7807.234863
1743.414063	7763.102539
1741.824219	7871.575195
1740.234375	7830.592285
1738.644531	7805.350586
1737.054688	7836.713379
1735.462891	7871.205566
1733.873047	7907.254395
1732.281250	7957.426758
1730.689453	8119.099609
1729.097656	7950.919922
1727.505859	7891.145508
1725.912109	8066.855957
1724.320313	8088.689941
1722.726563	8022.646973
1721.132813	8195.079102
1719.539063	8143.155762
1717.945313	8106.934570
1716.349609	8246.315430
1714.755859	8296.294922
1713.160156	8343.118164
1711.564453	8430.656250
1709.968750	8395.976563
1708.371094	8492.862305
1706.775391	8500.458008
1705.177734	8606.671875
1703.580078	8535.985352
1701.982422	8615.544922
1700.384766	8765.468750
1698.787109	8793.330078
1697.187500	8975.991211
1695.587891	8960.018555
1693.990234	8869.023438
1692.390625	9067.178711
1690.789063	9154.315430
1689.189453	9182.055664
1687.587891	9472.161133
1685.988281	9381.151367
1684.386719	9568.056641
1682.785156	9683.086914
1681.181641	9916.662109
1679.580078	9986.324219
1677.976563	9851.625000
1676.373047	10050.705078
1674.769531	10118.734375
1673.166016	10236.615234
1671.562500	10184.572266
1669.957031	10409.899414
1668.353516	10513.621094
1666.748047	10561.228516
1665.142578	10619.715820
1663.537109	10787.154297
1661.929688	11066.587891
1660.324219	11006.660156
1658.716797	11368.385742
1657.109375	11554.185547
1655.501953	11659.038086
1653.894531	11902.224609
1652.285156	11924.568359
1650.677734	12065.019531
1649.068359	12151.024414
1647.458984	12261.848633
1645.849609	12406.794922
1644.240234	12553.231445
1642.628906	12710.472656
1641.019531	12791.588867
1639.408203	13148.900391
1637.796875	13057.666992
1636.185547	13476.816406
1634.572266	13430.525391
1632.960938	13514.499023
1631.347656	13762.757813
1629.734375	13587.792969
1628.121094	13718.163086
1626.507813	13800.451172
1624.894531	14138.269531
1623.279297	14187.911133
1621.664063	14211.209961
1620.048828	14338.208008
1618.433594	14465.150391
1616.818359	14595.132813
1615.203125	14740.527344
1613.585938	14898.231445
1611.968750	14975.462891
1610.351563	15205.706055
1608.734375	15267.380859
1607.117188	15471.192383
1605.498047	15491.068359
1603.878906	15790.507813
1602.261719	16032.680664
1600.640625	16086.387695
1599.021484	15862.219727
1597.402344	16039.400391
1595.781250	16409.375000
1594.162109	16395.074219
1592.541016	16288.242188
1590.919922	16514.519531
1589.296875	16484.785156
1587.675781	16418.072266
1586.052734	16480.830078
1584.429688	16286.268555
1582.806641	16453.765625
1581.183594	16277.771484
1579.560547	16075.676758
1577.935547	15819.790039
1576.312500	15777.933594
1574.687500	15740.709961
1573.062500	15638.890625
1571.435547	15663.231445
1569.810547	15503.037109
1568.183594	15599.649414
1566.558594	15716.202148
1564.931641	15302.538086
1563.304688	15153.307617
1561.675781	15084.014648
1560.048828	15149.893555
1558.419922	15146.650391
1556.791016	15166.433594
1555.162109	15163.185547
1553.533203	15192.160156
1551.904297	15265.610352
1550.273438	15607.433594
1548.642578	15492.149414
1547.011719	15806.178711
1545.380859	15684.768555
1543.750000	15603.251953
1542.119141	15428.309570
1540.486328	15513.844727
1538.853516	15257.828125
1537.220703	15340.297852
1535.587891	15359.967773
1533.955078	15312.288086
1532.320313	15220.253906
1530.685547	15151.205078
1529.052734	15143.363281
1527.416016	14962.730469
1525.781250	14916.709961
1524.146484	14672.003906
1522.509766	14459.492188
1520.873047	14438.051758
1519.236328	14451.750977
1517.599609	14465.443359
1515.962891	14552.417969
1514.324219	14624.087891
1512.687500	14712.514648
1511.048828	14776.487305
1509.410156	14927.387695
1507.771484	14800.633789
1506.130859	14655.633789
1504.492188	14554.908203
1502.851563	14327.712891
1501.210938	14397.775391
1499.570313	14085.389648
1497.927734	14306.271484
1496.287109	14103.687500
1494.644531	14230.068359
1493.001953	14268.101563
1491.359375	14195.017578
1489.716797	14196.521484
1488.074219	14411.001953
1486.429688	14229.943359
1484.785156	14553.805664
1483.140625	14523.299805
1481.496094	14758.798828
1479.851563	14644.680664
1478.207031	14849.663086
1476.560547	14977.087891
1474.914063	14910.070313
1473.267578	15093.602539
1471.621094	14930.953125
1469.972656	14649.994141
1468.326172	14596.755859
1466.677734	14370.599609
1465.029297	14074.773438
1463.380859	13850.342773
1461.732422	13803.381836
1460.082031	13824.647461
1458.431641	13827.716797
1456.783203	13606.558594
1455.132813	13486.980469
1453.480469	13285.676758
1451.830078	13099.598633
1450.177734	13142.172852
1448.527344	12980.418945
1446.875000	12942.805664
1445.220703	12797.802734
1443.568359	12784.441406
1441.916016	12792.253906
1440.261719	12618.651367
1438.607422	12658.234375
1436.953125	12294.334961
1435.298828	12403.463867
1433.642578	12390.199219
1431.988281	12369.387695
1430.332031	12167.410156
1428.675781	12119.483398
1427.019531	12065.541016
1425.361328	11791.333984
1423.705078	11823.466797
1422.046875	11670.082031
1420.388672	11860.545898
1418.730469	11889.625000
1417.072266	11796.609375
1415.412109	11905.548828
1413.753906	12038.544922
1412.093750	12147.382813
1410.433594	12227.561523
1408.773438	12461.267578
1407.111328	12743.037109
1405.451172	12884.729492
1403.789063	12993.259766
1402.126953	13303.305664
1400.464844	13389.135742
1398.802734	13434.331055
1397.138672	13509.570313
1395.474609	13451.017578
1393.812500	13275.286133
1392.146484	13075.595703
1390.482422	13017.170898
1388.818359	13006.822266
1387.152344	12922.914063
1385.486328	12744.482422
1383.820313	12773.211914
1382.154297	12558.881836
1380.488281	12583.136719
1378.820313	12364.440430
1377.154297	12295.768555
1375.486328	12252.608398
1373.818359	12395.297852
1372.148438	12206.794922
1370.480469	12314.975586
1368.810547	12178.989258
1367.140625	12267.661133
1365.470703	12489.526367
1363.800781	12443.387695
1362.130859	12422.706055
1360.458984	12391.560547
1358.787109	12705.932617
1357.115234	12650.810547
1355.443359	12819.966797
1353.771484	12779.788086
1352.097656	12998.154297
1350.423828	13295.609375
1348.751953	13509.282227
1347.076172	13679.552734
1345.402344	14131.937500
1343.728516	14197.500977
1342.052734	14631.662109
1340.376953	15132.774414
1338.701172	15432.277344
1337.025391	15888.248047
1335.347656	16266.479492
1333.671875	16595.347656
1331.994141	16944.935547
1330.316406	17115.552734
1328.638672	17199.685547
1326.960938	17691.892578
1325.281250	17918.816406
1323.601563	18096.505859
1321.921875	17839.480469
1320.242188	17828.109375
1318.562500	17525.128906
1316.880859	17015.517578
1315.201172	16561.154297
1313.519531	16120.371094
1311.837891	15905.731445
1310.154297	15224.521484
1308.472656	14767.975586
1306.789063	14390.363281
1305.105469	13892.613281
1303.421875	13766.302734
1301.738281	13421.816406
1300.054688	13411.431641
1298.369141	13187.368164
1296.683594	13019.779297
1294.998047	12868.578125
1293.312500	12836.075195
1291.626953	12607.884766
1289.939453	12535.430664
1288.253906	12631.947266
1286.566406	12478.029297
1284.878906	12284.183594
1283.189453	12105.232422
1281.501953	12204.714844
1279.812500	11900.033203
1278.123047	11857.438477
1276.433594	11909.557617
1274.744141	11821.119141
1273.052734	11729.760742
1271.363281	11669.492188
1269.671875	11448.113281
1267.980469	11488.435547
1266.289063	11386.883789
1264.595703	11298.670898
1262.904297	11183.910156
1261.210938	11004.225586
1259.517578	11152.370117
1257.824219	11203.030273
1256.128906	11076.582031
1254.435547	11013.630859
1252.740234	11102.635742
1251.044922	11066.248047
1249.349609	11049.043945
1247.652344	10927.187500
1245.957031	11204.764648
1244.259766	11158.069336
1242.562500	11115.812500
1240.865234	11055.900391
1239.167969	11137.366211
1237.468750	10743.309570
1235.769531	10830.694336
1234.072266	10497.208008
1232.371094	10599.316406
1230.671875	10363.099609
1228.972656	10374.022461
1227.271484	10215.875977
1225.570313	10009.294922
1223.869141	10033.511719
1222.167969	10018.049805
1220.464844	9907.121094
1218.763672	10004.765625
1217.060547	9656.045898
1215.357422	9529.124023
1213.654297	9591.564453
1211.949219	9709.727539
1210.246094	9508.066406
1208.541016	9574.866211
1206.835938	9528.739258
1205.130859	9382.953125
1203.423828	9410.163086
1201.718750	9525.273438
1200.011719	9542.183594
1198.304688	9501.968750
1196.597656	9704.830078
1194.888672	9509.422852
1193.181641	9516.072266
1191.472656	9532.960938
1189.763672	9516.195313
1188.054688	9828.514648
1186.343750	9646.453125
1184.634766	9786.094727
1182.923828	9754.666992
1181.212891	9819.695313
1179.501953	9653.865234
1177.791016	9610.799805
1176.078125	9380.837891
1174.365234	9444.427734
1172.652344	9680.223633
1170.939453	9559.843750
1169.226563	9709.426758
1167.511719	9667.860352
1165.798828	9576.728516
1164.083984	9504.589844
1162.369141	9500.993164
1160.652344	9600.867188
1158.937500	9479.231445
1157.220703	9389.696289
1155.503906	9138.545898
1153.787109	9135.031250
1152.070313	9090.756836
1150.351563	8838.385742
1148.632813	8782.556641
1146.916016	8800.941406
1145.195313	8681.152344
1143.476563	8671.922852
1141.757813	8697.585938
1140.037109	8471.800781
1138.316406	8465.528320
1136.595703	8478.143555
1134.875000	8463.156250
1133.152344	8340.721680
1131.429688	8334.481445
1129.708984	8416.779297
1127.984375	8165.288086
1126.261719	8143.130371
1124.539063	8232.666016
1122.814453	8133.645508
1121.089844	8150.651367
1119.365234	8185.042480
1117.640625	8275.932617
1115.914063	8130.627441
1114.187500	8134.579102
1112.462891	8086.395020
1110.734375	8101.936035
1109.007813	7922.059082
1107.281250	7969.465820
1105.552734	8063.148438
1103.824219	7858.809570
1102.095703	7820.872070
1100.367188	7852.351074
1098.636719	7836.112793
1096.908203	7789.532715
1095.177734	7771.870117
1093.447266	7523.090332
1091.714844	7508.382813
1089.984375	7649.619141
1088.251953	7551.162598
1086.519531	7390.691895
1084.787109	7381.796387
1083.054688	7481.095703
1081.320313	7335.170410
1079.585938	7215.265137
1077.851563	7290.025879
1076.117188	7268.187988
1074.382813	7243.478027
1072.648438	7215.896973
1070.912109	7287.705566
1069.175781	7283.164551
1067.439453	7134.664551
1065.701172	7207.879883
1063.964844	7145.800293
1062.226563	7250.627441
1060.488281	7217.330566
1058.750000	7182.609863
1057.011719	7182.407715
1055.271484	7104.590332
1053.531250	7090.034668
1051.791016	7125.768066
1050.050781	7339.587402
1048.310547	7323.549805
1046.568359	7264.448730
1044.826172	7350.342773
1043.083984	7117.625977
1041.341797	7296.767090
1039.599609	7269.278809
1037.855469	7218.858398
1036.113281	7156.990723
1034.369141	7224.153320
1032.623047	7209.601074
1030.878906	7123.419922
1029.132813	7295.105469
1027.386719	7256.200195
1025.640625	7321.827637
1023.894531	7228.539551
1022.148438	7265.520508
1020.400391	7205.193359
1018.652344	7182.083984
1016.904297	7404.958496
1015.156250	7351.787598
1013.406250	7231.457031
1011.658203	7346.982422
1009.908203	7401.016602
1008.158203	7380.746094
1006.408203	7446.171387
1004.656250	7473.015137
1002.904297	7632.599609
1001.152344	7598.020508
999.400391	7604.833496
997.648438	7610.216309
995.896484	7417.361816
994.142578	7384.287109
992.388672	7274.250000
990.634766	7264.023926
988.878906	7221.030762
987.125000	7252.130859
985.369141	7163.585449
983.613281	7072.232422
981.857422	6999.426270
980.099609	6875.417969
978.343750	6927.900879
976.585938	6914.922852
974.828125	6880.616699
973.070313	6776.653809
971.310547	6816.314453
969.552734	6755.049805
967.792969	6882.790527
966.033203	6946.546875
964.273438	7000.331055
962.511719	7129.344727
960.750000	7381.801270
958.990234	7458.153809
957.226563	7470.618164
955.464844	7539.820313
953.703125	7342.355469
951.939453	7281.103516
950.175781	7188.691406
948.412109	7033.961426
946.648438	6940.230957
944.882813	6767.212402
943.117188	6761.395996
941.351563	6679.119629
939.585938	6598.296387
937.820313	6534.493164
936.052734	6562.693359
934.285156	6462.145508
932.517578	6541.263672
930.750000	6463.390625
928.982422	6468.959473
927.212891	6368.524414
925.443359	6402.371582
923.673828	6400.885254
921.904297	6537.810059
920.132813	6540.527832
918.361328	6419.013672
916.591797	6434.458984
914.818359	6479.528320
913.046875	6446.986328
911.275391	6383.430664
909.501953	6383.356445
907.728516	6491.831055
905.955078	6436.763184
904.179688	6414.129395
902.406250	6504.205566
900.630859	6577.338379
898.855469	6471.607910
897.080078	6456.023438
895.302734	6402.444336
893.525391	6429.095215
891.750000	6386.800781
889.970703	6345.931641
888.193359	6361.326172
886.416016	6305.016602
884.636719	6285.275391
882.857422	6220.578125
881.078125	6113.765625
879.296875	6036.496582
877.517578	6127.762695
875.736328	6119.313477
873.955078	6162.796875
872.173828	6037.878418
870.390625	6152.904785
868.609375	6140.247559
866.826172	6107.964844
865.042969	6075.696289
863.259766	6116.322754
861.474609	5976.172852
859.689453	6063.031250
857.904297	6082.621582
856.119141	6154.011230
854.333984	6139.972168
852.546875	6083.952148
850.761719	6215.457031
848.974609	6208.406250
847.185547	6183.176758
845.398438	6068.469727
843.609375	6243.188477
841.822266	6234.737793
840.031250	6405.143066
838.242188	6460.917480
836.453125	6582.306152
834.662109	6502.570313
832.871094	6428.455566
831.080078	6482.773926
829.289063	6312.419922
827.496094	6363.948730
825.703125	6217.410645
823.910156	6179.698730
822.117188	6193.582520
820.324219	6056.941406
818.529297	6150.267090
816.734375	6192.006836
814.939453	6095.848633
813.144531	6216.945801
811.347656	6216.876953
809.550781	6127.737793
807.755859	6240.391602
805.957031	6269.527832
804.160156	6265.272461
802.361328	6295.778320
800.564453	6146.948730
798.765625	6189.975098
796.964844	6164.898438
795.166016	6259.295898
793.365234	6200.882813
791.564453	6046.693848
789.763672	6086.913574
787.962891	6043.846680
786.160156	6081.271973
784.359375	5916.156738
782.556641	5820.459961
780.751953	5932.780273
778.949219	5884.252441
777.144531	5964.629883
775.339844	6043.583008
773.535156	6044.928223
771.730469	6111.360840
769.925781	6072.537109
768.119141	5960.368164
766.312500	6083.510742
764.505859	6126.348633
762.697266	6253.542480
760.890625	6111.010742
759.082031	6191.139648
757.273438	6167.562012
755.464844	6207.562500
753.654297	6174.319824
751.845703	6114.848145
750.035156	6094.070313
748.224609	6273.490234
746.412109	6237.500488
744.601563	6422.320313
742.789063	6602.913086
740.976563	6787.558105
739.164063	7447.862305
737.349609	8288.457031
735.537109	9703.416016
733.722656	11214.164063
731.908203	12250.276367
730.091797	12342.414063
728.277344	11554.590820
726.460938	10323.842773
724.644531	9096.428711
722.828125	8294.792969
721.009766	7785.188477
719.193359	7194.676758
717.375000	7014.213867
715.556641	6745.852051
713.736328	6668.660645
711.917969	6363.406738
710.097656	6246.501953
708.277344	6264.249512
706.457031	6141.930176
704.636719	6231.077637
702.814453	6210.385254
700.992188	6234.982910
699.169922	6207.439453
697.347656	6245.739746
695.523438	6220.948242
693.699219	6252.371582
691.875000	6293.373535
690.050781	6217.889648
688.226563	6297.234863
686.400391	6197.133301
684.574219	6072.433105
682.748047	6159.968262
680.921875	6047.651855
679.095703	6244.608887
677.267578	6247.228516
675.439453	6048.812500
673.611328	6163.591797
671.781250	6123.852539
669.953125	6137.429688
668.123047	6207.017090
666.292969	6159.098633
664.460938	6217.722168
662.630859	6369.157715
660.798828	6266.633789
658.966797	6274.695801
657.134766	6323.683594
655.302734	6399.927246
653.468750	6379.312500
651.634766	6156.930176
649.800781	6380.365723
647.966797	6418.365234
646.130859	6254.713379
644.294922	6385.344238
642.458984	6300.757324
640.623047	6356.436523
638.787109	6299.117676
636.949219	6139.768555
635.111328	6068.923340
633.273438	6121.882324
631.435547	6101.386230
629.595703	6086.337891
627.757813	6199.055176
625.917969	6190.783691
624.076172	6314.289551
622.236328	6235.368164
620.394531	6470.147461
618.552734	6396.655762
616.710938	6435.846191
614.869141	6314.906250
613.025391	6284.912598
611.183594	6360.718262
609.339844	6193.780273
607.494141	6124.523438
605.650391	6076.983398
603.804688	5960.363281
601.958984	5957.586426
600.113281	5729.998047
598.267578	5747.585938
596.419922	5865.334473
594.572266	5716.422363
592.724609	5746.176758
590.876953	5702.871582
589.027344	5759.660645
587.179688	5640.658691
585.330078	5562.264648
583.480469	5647.424316
581.628906	5650.128418
579.779297	5567.734375
577.927734	5447.567871
576.076172	5507.020508
574.222656	5592.089844
572.371094	5640.682617
570.517578	5643.382324
568.664063	5771.518066
566.810547	5716.199707
564.955078	5642.032715
563.101563	5778.163086
561.246094	5646.072754
559.390625	5652.806152
557.533203	5612.395508
555.677734	5600.280762
553.820313	5580.094238
551.962891	5519.540527
550.105469	5457.668945
548.246094	5378.338867
546.386719	5429.504883
544.527344	5409.381348
542.667969	5391.955566
540.808594	5354.378418
538.947266	5357.128418
537.085938	5463.312500
535.224609	5480.807617
533.363281	5411.019043
531.500000	5401.669922
529.638672	5407.086914
527.775391	5400.426270
525.910156	5400.475098
524.046875	5576.204590
522.181641	6089.720703
520.316406	6707.544434
518.451172	6511.621582
516.585938	5663.312500
514.718750	5343.161621
512.851563	5232.071777
510.984375	5165.216309
509.117188	5289.799316
507.250000	5122.597168
505.380859	5026.381348
503.511719	5046.578125
501.642578	5078.800293
499.771484	5008.064941
497.902344	5076.367676
496.031250	4928.162109
494.160156	5055.232910
492.287109	5055.357422
490.416016	5058.152344
488.542969	5056.940918
486.669922	4987.661133
484.796875	5054.518066
482.921875	5038.632813
481.046875	5069.434570
479.171875	5033.551758
477.296875	4940.363770
475.421875	4833.892578
473.544922	4788.764160
471.667969	4804.934082
469.791016	4775.814941
467.914063	4778.665039
466.035156	4833.428223
464.156250	4817.630859
462.277344	4761.925293
460.398438	4752.802734
458.519531	4810.178223
456.638672	4814.343750
454.757813	4746.728027
452.876953	4734.958984
450.994141	4759.067871
449.113281	4760.583496
447.230469	4750.146973
445.347656	4787.510254
443.462891	4828.837402
441.580078	4818.391113
439.695313	4696.506836
437.810547	4678.138184
435.925781	4749.950195
434.039063	4686.501953
432.152344	4629.710938
430.267578	4734.609863
428.378906	4787.791504
426.492188	4597.244141
424.603516	4616.004883
422.714844	4641.375000
420.826172	4683.938965
418.937500	4628.564941
417.046875	4681.693848
415.158203	4650.152832
413.265625	4567.059082
411.375000	4591.081055
409.484375	4625.664551
407.591797	4650.981934
405.699219	4500.596191
403.806641	4614.415527
401.912109	4569.738281
400.019531	4539.602539
