#Wave		#Intensity
2109.224609	12492.416016
2107.712891	12532.111328
2106.201172	12577.356445
2104.687500	12202.655273
2103.175781	12401.669922
2101.662109	12364.287109
2100.150391	12498.747070
2098.636719	12299.480469
2097.123047	12371.140625
2095.607422	12350.307617
2094.093750	12565.541992
2092.578125	12384.587891
2091.064453	12312.614258
2089.548828	12375.946289
2088.033203	12348.538086
2086.517578	12373.909180
2085.000000	12447.079102
2083.484375	12343.853516
2081.966797	12379.096680
2080.449219	12402.791992
2078.931641	12281.523438
2077.414063	12229.474609
2075.894531	12258.125977
2074.376953	12352.611328
2072.857422	12331.850586
2071.337891	12314.389648
2069.818359	12413.737305
2068.298828	12277.846680
2066.777344	12201.211914
2065.257813	12101.593750
2063.736328	12105.569336
2062.214844	12234.434570
2060.693359	12307.383789
2059.171875	12219.326172
2057.648438	12164.152344
2056.126953	12278.117188
2054.603516	12181.915039
2053.080078	12279.415039
2051.556641	12270.218750
2050.033203	12190.485352
2048.507813	12146.869141
2046.984375	12108.190430
2045.458984	12121.991211
2043.933594	12125.951172
2042.408203	12165.960938
2040.882813	12168.271484
2039.355469	12108.335938
2037.830078	12174.526367
2036.302734	12207.942383
2034.775391	12151.310547
2033.248047	12097.975586
2031.718750	12237.745117
2030.191406	12068.263672
2028.662109	11861.235352
2027.134766	12126.878906
2025.605469	12209.300781
2024.076172	12067.756836
2022.544922	12199.181641
2021.015625	12149.195313
2019.484375	12006.121094
2017.955078	12139.108398
2016.423828	12085.900391
2014.892578	12127.396484
2013.359375	12026.882813
2011.828125	12029.211914
2010.294922	12042.959961
2008.761719	12027.342773
2007.230469	11887.799805
2005.695313	12111.883789
2004.162109	11982.161133
2002.628906	12007.311523
2001.093750	12095.994141
1999.558594	11972.873047
1998.023438	12089.211914
1996.488281	12010.107422
1994.953125	11921.270508
1993.417969	12097.764648
1991.880859	12021.963867
1990.343750	11959.209961
1988.806641	11875.337891
1987.269531	11950.867188
1985.732422	11925.562500
1984.193359	11880.762695
1982.656250	12078.128906
1981.117188	11726.226563
1979.578125	12022.633789
1978.039063	11985.970703
1976.500000	11905.481445
1974.958984	11883.469727
1973.417969	11953.982422
1971.878906	11930.346680
1970.337891	12005.685547
1968.796875	11879.859375
1967.253906	11822.198242
1965.712891	11921.832031
1964.169922	12019.802734
1962.626953	12065.871094
1961.083984	12105.437500
1959.541016	11889.030273
1957.998047	11881.647461
1956.455078	11901.794922
1954.910156	11781.085938
1953.365234	11752.688477
1951.820313	11818.162109
1950.275391	11987.154297
1948.730469	11961.964844
1947.183594	11773.446289
1945.638672	11819.456055
1944.091797	11922.024414
1942.544922	12031.014648
1940.998047	11779.622070
1939.449219	11791.664063
1937.902344	11981.370117
1936.353516	11940.075195
1934.804688	11869.736328
1933.255859	11930.171875
1931.707031	11929.257813
1930.158203	11799.266602
1928.607422	11749.987305
1927.058594	11845.877930
1925.507813	11859.493164
1923.957031	11723.176758
1922.406250	11814.175781
1920.853516	11753.663086
1919.302734	11855.894531
1917.750000	11925.867188
1916.197266	11820.277344
1914.644531	11824.215820
1913.091797	11778.250977
1911.539063	11853.007813
1909.984375	11845.671875
1908.431641	11793.295898
1906.876953	11832.617188
1905.322266	11820.465820
1903.767578	11628.259766
1902.210938	11762.422852
1900.656250	11806.537109
1899.099609	11730.133789
1897.542969	11857.763672
1895.986328	11725.172852
1894.429688	11844.720703
1892.873047	11731.451172
1891.314453	11810.822266
1889.755859	11691.188477
1888.199219	11658.235352
1886.640625	11581.990234
1885.080078	11727.071289
1883.521484	11652.446289
1881.960938	11850.347656
1880.402344	11698.802734
1878.841797	11826.111328
1877.281250	11794.777344
1875.720703	11662.558594
1874.158203	11717.737305
1872.597656	11737.673828
1871.035156	11699.981445
1869.472656	11729.513672
1867.910156	11909.419922
1866.347656	11756.547852
1864.783203	11669.306641
1863.220703	11639.660156
1861.656250	11753.892578
1860.091797	11730.633789
1858.527344	11750.525391
1856.962891	11680.948242
1855.396484	11868.542969
1853.832031	11787.791016
1852.265625	11721.441406
1850.699219	11596.062500
1849.132813	11770.749023
1847.566406	11771.453125
1845.998047	11789.704102
1844.431641	11798.377930
1842.863281	11866.042969
1841.294922	11775.859375
1839.726563	12010.847656
1838.156250	11858.526367
1836.587891	11870.360352
1835.017578	11992.090820
1833.449219	12005.482422
1831.878906	11907.420898
1830.306641	11935.149414
1828.736328	12047.212891
1827.166016	12012.846680
1825.593750	12135.981445
1824.021484	11998.231445
1822.449219	12038.630859
1820.876953	12067.883789
1819.304688	12154.343750
1817.730469	12161.311523
1816.158203	12225.470703
1814.583984	12300.722656
1813.009766	12314.005859
1811.435547	12338.397461
1809.859375	12169.113281
1808.285156	12414.127930
1806.708984	12563.833984
1805.132813	12462.823242
1803.556641	12355.510742
1801.980469	12400.473633
1800.404297	12410.538086
1798.826172	12422.182617
1797.248047	12471.855469
1795.671875	12410.598633
1794.093750	12244.819336
1792.513672	12145.625977
1790.935547	12269.732422
1789.355469	12333.629883
1787.777344	12264.549805
1786.197266	12298.354492
1784.617188	12164.446289
1783.035156	12103.353516
1781.455078	12152.982422
1779.873047	12071.362305
1778.292969	12253.756836
1776.710938	12113.674805
1775.128906	12292.822266
1773.544922	12225.457031
1771.962891	12535.592773
1770.378906	12236.082031
1768.794922	12304.539063
1767.212891	12204.079102
1765.626953	12360.883789
1764.042969	12296.741211
1762.458984	12382.476563
1760.873047	12212.692383
1759.287109	12358.323242
1757.701172	12399.849609
1756.115234	12457.119141
1754.529297	12441.880859
1752.941406	12577.884766
1751.355469	12386.219727
1749.767578	12504.855469
1748.179688	12549.443359
1746.591797	12575.123047
1745.001953	12833.702148
1743.414063	12794.800781
1741.824219	12587.598633
1740.234375	12715.472656
1738.644531	12767.817383
1737.054688	12938.043945
1735.462891	13054.758789
1733.873047	12910.572266
1732.281250	12777.444336
1730.689453	12933.384766
1729.097656	12995.035156
1727.505859	13295.308594
1725.912109	13110.407227
1724.320313	13091.938477
1722.726563	13109.566406
1721.132813	13133.460938
1719.539063	13362.805664
1717.945313	13148.288086
1716.349609	13195.672852
1714.755859	13213.255859
1713.160156	13353.062500
1711.564453	13494.376953
1709.968750	13887.822266
1708.371094	13761.161133
1706.775391	13780.167969
1705.177734	13766.291992
1703.580078	13608.432617
1701.982422	13941.973633
1700.384766	13709.049805
1698.787109	13907.914063
1697.187500	13944.061523
1695.587891	14013.025391
1693.990234	14131.977539
1692.390625	14233.688477
1690.789063	14447.850586
1689.189453	14526.018555
1687.587891	14591.657227
1685.988281	14697.865234
1684.386719	15013.216797
1682.785156	15052.174805
1681.181641	15240.917969
1679.580078	15481.065430
1677.976563	15357.678711
1676.373047	15840.971680
1674.769531	16055.889648
1673.166016	15776.577148
1671.562500	16024.142578
1669.957031	15983.347656
1668.353516	16296.190430
1666.748047	16199.283203
1665.142578	16483.916016
1663.537109	16530.236328
1661.929688	16607.664063
1660.324219	17013.406250
1658.716797	17352.074219
1657.109375	17664.154297
1655.501953	17679.064453
1653.894531	17934.966797
1652.285156	18217.183594
1650.677734	18594.085938
1649.068359	18778.150391
1647.458984	19011.845703
1645.849609	19532.781250
1644.240234	20092.314453
1642.628906	20384.574219
1641.019531	21041.472656
1639.408203	21330.300781
1637.796875	21933.964844
1636.185547	22450.501953
1634.572266	22856.707031
1632.960938	22977.439453
1631.347656	23474.818359
1629.734375	23706.957031
1628.121094	23838.271484
1626.507813	24223.601563
1624.894531	24669.173828
1623.279297	24747.544922
1621.664063	25076.693359
1620.048828	25713.732422
1618.433594	25952.773438
1616.818359	26640.410156
1615.203125	27654.152344
1613.585938	28449.390625
1611.968750	29026.265625
1610.351563	29296.800781
1608.734375	29901.068359
1607.117188	30010.589844
1605.498047	30183.404297
1603.878906	30255.744141
1602.261719	30568.957031
1600.640625	31119.804688
1599.021484	31296.857422
1597.402344	31566.429688
1595.781250	31706.275391
1594.162109	31992.609375
1592.541016	32135.386719
1590.919922	32600.371094
1589.296875	32716.742188
1587.675781	32934.789063
1586.052734	33320.707031
1584.429688	33549.312500
1582.806641	34082.800781
1581.183594	34434.339844
1579.560547	34209.890625
1577.935547	34073.273438
1576.312500	34093.695313
1574.687500	33657.117188
1573.062500	33451.472656
1571.435547	33199.773438
1569.810547	33208.050781
1568.183594	33536.093750
1566.558594	32784.996094
1564.931641	32383.046875
1563.304688	32325.417969
1561.675781	32556.587891
1560.048828	32191.796875
1558.419922	32441.316406
1556.791016	32070.558594
1555.162109	32161.914063
1553.533203	31891.109375
1551.904297	31637.291016
1550.273438	31279.283203
1548.642578	31215.845703
1547.011719	30927.066406
1545.380859	31202.464844
1543.750000	31243.281250
1542.119141	30873.472656
1540.486328	31036.878906
1538.853516	30808.162109
1537.220703	30931.699219
1535.587891	30406.123047
1533.955078	30067.488281
1532.320313	29672.380859
1530.685547	29399.824219
1529.052734	29170.207031
1527.416016	28891.755859
1525.781250	28732.667969
1524.146484	28529.320313
1522.509766	28292.437500
1520.873047	28608.732422
1519.236328	27863.269531
1517.599609	27739.687500
1515.962891	27324.527344
1514.324219	27162.945313
1512.687500	26682.457031
1511.048828	26402.062500
1509.410156	26071.441406
1507.771484	26288.511719
1506.130859	26022.099609
1504.492188	25982.957031
1502.851563	25956.023438
1501.210938	25802.617188
1499.570313	26039.306641
1497.927734	25619.376953
1496.287109	25802.697266
1494.644531	25434.761719
1493.001953	24730.564453
1491.359375	24638.484375
1489.716797	24435.363281
1488.074219	24277.966797
1486.429688	24163.222656
1484.785156	24015.072266
1483.140625	23707.353516
1481.496094	23691.595703
1479.851563	23513.244141
1478.207031	23290.908203
1476.560547	23279.802734
1474.914063	23479.792969
1473.267578	23131.580078
1471.621094	23156.941406
1469.972656	23400.833984
1468.326172	22917.816406
1466.677734	22965.957031
1465.029297	22772.923828
1463.380859	23298.720703
1461.732422	23545.341797
1460.082031	23763.054688
1458.431641	23779.126953
1456.783203	23552.785156
1455.132813	23520.421875
1453.480469	23313.916016
1451.830078	23095.384766
1450.177734	23054.054688
1448.527344	22669.195313
1446.875000	22514.490234
1445.220703	22789.468750
1443.568359	22708.906250
1441.916016	22534.628906
1440.261719	22508.578125
1438.607422	22527.878906
1436.953125	22751.167969
1435.298828	23063.494141
1433.642578	23514.644531
1431.988281	23492.927734
1430.332031	23750.531250
1428.675781	24035.189453
1427.019531	23287.474609
1425.361328	22736.226563
1423.705078	22541.216797
1422.046875	22055.218750
1420.388672	21780.523438
1418.730469	21632.574219
1417.072266	21440.980469
1415.412109	21168.099609
1413.753906	21299.080078
1412.093750	21039.900391
1410.433594	20824.500000
1408.773438	20923.849609
1407.111328	21026.162109
1405.451172	21310.517578
1403.789063	21296.849609
1402.126953	21805.146484
1400.464844	21774.828125
1398.802734	22171.533203
1397.138672	22038.923828
1395.474609	22191.923828
1393.812500	22194.595703
1392.146484	21988.453125
1390.482422	21788.404297
1388.818359	21845.214844
1387.152344	21645.281250
1385.486328	21538.490234
1383.820313	21631.326172
1382.154297	21535.083984
1380.488281	21789.871094
1378.820313	21719.126953
1377.154297	21639.414063
1375.486328	21973.451172
1373.818359	21953.658203
1372.148438	21861.955078
1370.480469	22081.871094
1368.810547	21861.375000
1367.140625	22015.308594
1365.470703	22011.986328
1363.800781	21989.205078
1362.130859	22071.177734
1360.458984	21891.308594
1358.787109	22184.154297
1357.115234	22260.042969
1355.443359	22153.501953
1353.771484	22384.808594
1352.097656	22551.753906
1350.423828	22708.164063
1348.751953	22895.873047
1347.076172	23350.816406
1345.402344	23856.322266
1343.728516	24188.445313
1342.052734	24601.011719
1340.376953	24917.898438
1338.701172	25094.419922
1337.025391	25329.027344
1335.347656	25514.320313
1333.671875	25808.359375
1331.994141	25623.830078
1330.316406	25756.775391
1328.638672	25617.027344
1326.960938	25213.703125
1325.281250	25083.066406
1323.601563	25125.187500
1321.921875	25137.515625
1320.242188	24876.017578
1318.562500	25074.369141
1316.880859	24926.044922
1315.201172	24624.605469
1313.519531	24324.781250
1311.837891	24145.496094
1310.154297	23881.574219
1308.472656	23311.677734
1306.789063	23321.390625
1305.105469	22977.617188
1303.421875	22893.845703
1301.738281	22798.234375
1300.054688	22944.589844
1298.369141	22687.259766
1296.683594	22470.097656
1294.998047	22217.431641
1293.312500	22117.613281
1291.626953	22053.419922
1289.939453	21750.609375
1288.253906	21765.064453
1286.566406	21629.867188
1284.878906	21137.742188
1283.189453	21267.830078
1281.501953	21252.757813
1279.812500	20916.466797
1278.123047	21200.425781
1276.433594	21064.041016
1274.744141	20952.863281
1273.052734	20937.867188
1271.363281	20773.531250
1269.671875	20785.185547
1267.980469	20461.328125
1266.289063	20267.648438
1264.595703	20345.880859
1262.904297	20068.119141
1261.210938	19921.902344
1259.517578	19957.339844
1257.824219	19970.619141
1256.128906	19855.503906
1254.435547	19845.191406
1252.740234	19523.646484
1251.044922	19197.818359
1249.349609	19354.255859
1247.652344	19232.027344
1245.957031	19106.902344
1244.259766	18866.906250
1242.562500	19063.044922
1240.865234	19328.312500
1239.167969	19455.052734
1237.468750	19299.095703
1235.769531	19312.457031
1234.072266	18881.437500
1232.371094	18756.597656
1230.671875	18605.337891
1228.972656	18264.455078
1227.271484	18082.496094
1225.570313	18093.160156
1223.869141	18146.431641
1222.167969	17976.369141
1220.464844	17982.636719
1218.763672	17915.476563
1217.060547	17826.320313
1215.357422	17859.033203
1213.654297	17747.916016
1211.949219	17848.117188
1210.246094	17443.679688
1208.541016	17558.564453
1206.835938	17787.761719
1205.130859	17487.677734
1203.423828	17589.283203
1201.718750	17712.818359
1200.011719	17864.128906
1198.304688	17699.027344
1196.597656	17905.910156
1194.888672	17557.882813
1193.181641	17580.292969
1191.472656	17547.087891
1189.763672	17404.177734
1188.054688	17296.429688
1186.343750	17179.957031
1184.634766	17072.306641
1182.923828	16960.316406
1181.212891	16810.382813
1179.501953	16603.539063
1177.791016	16719.578125
1176.078125	16523.066406
1174.365234	16617.169922
1172.652344	16343.405273
1170.939453	16389.347656
1169.226563	16432.347656
1167.511719	16552.636719
1165.798828	16490.580078
1164.083984	16333.781250
1162.369141	16289.291016
1160.652344	16572.716797
1158.937500	16367.919922
1157.220703	16525.923828
1155.503906	16442.101563
1153.787109	16118.073242
1152.070313	15843.682617
1150.351563	15764.432617
1148.632813	15615.375000
1146.916016	15462.018555
1145.195313	15144.385742
1143.476563	15152.600586
1141.757813	14931.122070
1140.037109	14685.036133
1138.316406	14607.613281
1136.595703	14352.991211
1134.875000	14265.508789
1133.152344	14015.432617
1131.429688	13854.024414
1129.708984	13816.057617
1127.984375	13641.705078
1126.261719	13484.838867
1124.539063	13539.804688
1122.814453	13462.785156
1121.089844	13553.973633
1119.365234	13384.217773
1117.640625	13233.376953
1115.914063	13176.774414
1114.187500	13105.710938
1112.462891	12889.864258
1110.734375	12801.522461
1109.007813	12674.136719
1107.281250	12491.815430
1105.552734	12420.981445
1103.824219	12238.797852
1102.095703	12233.127930
1100.367188	12312.763672
1098.636719	12083.023438
1096.908203	12067.272461
1095.177734	12028.410156
1093.447266	12038.677734
1091.714844	11927.626953
1089.984375	12089.516602
1088.251953	11852.915039
1086.519531	12069.587891
1084.787109	11949.968750
1083.054688	11915.513672
1081.320313	11934.434570
1079.585938	11943.253906
1077.851563	11828.091797
1076.117188	11968.081055
1074.382813	11671.408203
1072.648438	11879.075195
1070.912109	11683.373047
1069.175781	11654.791016
1067.439453	11475.063477
1065.701172	11557.363281
1063.964844	11461.195313
1062.226563	11353.561523
1060.488281	11389.804688
1058.750000	11132.685547
1057.011719	11204.901367
1055.271484	11094.544922
1053.531250	11076.204102
1051.791016	10983.164063
1050.050781	10944.746094
1048.310547	10914.960938
1046.568359	10788.999023
1044.826172	10862.604492
1043.083984	10883.080078
1041.341797	10767.250000
1039.599609	10773.392578
1037.855469	10660.506836
1036.113281	10742.654297
1034.369141	10897.864258
1032.623047	10889.635742
1030.878906	10751.034180
1029.132813	11000.668945
1027.386719	11008.172852
1025.640625	10969.855469
1023.894531	10964.477539
1022.148438	10956.238281
1020.400391	10910.802734
1018.652344	10809.601563
1016.904297	10880.054688
1015.156250	11030.541016
1013.406250	10903.648438
1011.658203	10931.155273
1009.908203	10844.346680
1008.158203	10823.285156
1006.408203	10820.797852
1004.656250	10905.405273
1002.904297	10875.776367
1001.152344	10847.586914
999.400391	10919.285156
997.648438	10882.538086
995.896484	10771.646484
994.142578	10719.263672
992.388672	10652.649414
990.634766	10578.938477
988.878906	10626.371094
987.125000	10699.421875
985.369141	10510.389648
983.613281	10597.669922
981.857422	10615.155273
980.099609	10584.244141
978.343750	10675.711914
976.585938	10659.024414
974.828125	10511.500000
973.070313	10486.324219
971.310547	10439.835938
969.552734	10502.801758
967.792969	10477.642578
966.033203	10661.315430
964.273438	10636.128906
962.511719	10806.899414
960.750000	10979.009766
958.990234	11030.403320
957.226563	10931.366211
955.464844	11016.791016
953.703125	10930.564453
951.939453	10757.883789
950.175781	10756.811523
948.412109	10877.625000
946.648438	10719.242188
944.882813	10671.427734
943.117188	10738.354492
941.351563	10699.051758
939.585938	10648.441406
937.820313	10579.453125
936.052734	10340.699219
934.285156	10297.276367
932.517578	10188.813477
930.750000	10343.404297
928.982422	10240.633789
927.212891	10318.818359
925.443359	10286.750000
923.673828	10249.044922
921.904297	10287.623047
920.132813	10302.178711
918.361328	10275.787109
916.591797	10153.432617
914.818359	10201.870117
913.046875	10038.677734
911.275391	10091.348633
909.501953	9950.816406
907.728516	10054.232422
905.955078	9975.785156
904.179688	9998.828125
902.406250	9992.274414
900.630859	9949.104492
898.855469	9973.541992
897.080078	9961.365234
895.302734	9966.083008
893.525391	9877.926758
891.750000	9777.150391
889.970703	9874.730469
888.193359	9835.870117
886.416016	9598.807617
884.636719	9783.498047
882.857422	9684.260742
881.078125	9603.332031
879.296875	9483.114258
877.517578	9619.914063
875.736328	9522.208008
873.955078	9466.651367
872.173828	9406.911133
870.390625	9465.036133
868.609375	9399.711914
866.826172	9450.799805
865.042969	9368.684570
863.259766	9414.147461
861.474609	9453.983398
859.689453	9469.984375
857.904297	9456.565430
856.119141	9528.565430
854.333984	9386.345703
852.546875	9307.172852
850.761719	9318.987305
848.974609	9323.800781
847.185547	9348.191406
845.398438	9350.197266
843.609375	9384.353516
841.822266	9404.517578
840.031250	9486.151367
838.242188	9465.767578
836.453125	9448.186523
834.662109	9307.738281
832.871094	9339.058594
831.080078	9402.463867
829.289063	9305.376953
827.496094	9393.869141
825.703125	9327.510742
823.910156	9329.504883
822.117188	9263.190430
820.324219	9104.923828
818.529297	9356.375977
816.734375	9237.165039
814.939453	9194.606445
813.144531	9147.890625
811.347656	9190.287109
809.550781	9200.652344
807.755859	9089.961914
805.957031	8980.712891
804.160156	9053.701172
802.361328	9000.126953
800.564453	8954.916992
798.765625	8995.893555
796.964844	8978.493164
795.166016	8866.640625
793.365234	8814.558594
791.564453	8997.146484
789.763672	9022.791016
787.962891	8977.644531
786.160156	9054.616211
784.359375	9156.518555
782.556641	9148.814453
780.751953	8977.506836
778.949219	8908.855469
777.144531	8841.621094
775.339844	9022.423828
773.535156	8969.044922
771.730469	9002.935547
769.925781	9010.503906
768.119141	8858.884766
766.312500	8809.743164
764.505859	8972.305664
762.697266	8889.961914
760.890625	8896.160156
759.082031	9066.880859
757.273438	9154.585938
755.464844	9151.041992
753.654297	9432.106445
751.845703	9667.455078
750.035156	9974.500000
748.224609	10343.527344
746.412109	10949.788086
744.601563	11459.163086
742.789063	11846.889648
740.976563	12186.156250
739.164063	13134.769531
737.349609	14387.614258
735.537109	15757.024414
733.722656	17552.964844
731.908203	18164.630859
730.091797	18091.464844
728.277344	16379.674805
726.460938	14484.217773
724.644531	12647.462891
722.828125	11291.817383
721.009766	10436.197266
719.193359	9915.202148
717.375000	9509.958984
715.556641	9227.258789
713.736328	9164.597656
711.917969	9121.203125
710.097656	8969.300781
708.277344	8964.427734
706.457031	8998.002930
704.636719	9189.432617
702.814453	9014.323242
700.992188	9182.330078
699.169922	8975.751953
697.347656	9073.740234
695.523438	9185.393555
693.699219	9262.721680
691.875000	9355.088867
690.050781	9402.194336
688.226563	9434.208984
686.400391	9592.204102
684.574219	9377.699219
682.748047	9376.840820
680.921875	9547.050781
679.095703	9585.830078
677.267578	9740.861328
675.439453	9697.519531
673.611328	9658.298828
671.781250	9636.866211
669.953125	9594.944336
668.123047	9557.139648
666.292969	9485.203125
664.460938	9312.244141
662.630859	9479.327148
660.798828	9418.377930
658.966797	9270.119141
657.134766	9368.875000
655.302734	9493.498047
653.468750	9566.241211
651.634766	9450.805664
649.800781	9856.104492
647.966797	9774.720703
646.130859	9964.490234
644.294922	9842.255859
642.458984	9899.829102
640.623047	9946.481445
638.787109	9788.949219
636.949219	9721.300781
635.111328	9593.824219
633.273438	9520.812500
631.435547	9477.750000
629.595703	9501.321289
627.757813	9516.725586
625.917969	9465.540039
624.076172	9567.887695
622.236328	9469.176758
620.394531	9506.295898
618.552734	9383.209961
616.710938	9207.250000
614.869141	9177.916992
613.025391	9141.814453
611.183594	9097.589844
609.339844	9053.386719
607.494141	8999.714844
605.650391	8840.357422
603.804688	8788.115234
601.958984	8791.436523
600.113281	8685.057617
598.267578	8653.197266
596.419922	8660.607422
594.572266	8635.533203
592.724609	8675.414063
590.876953	8769.382813
589.027344	8691.556641
587.179688	8798.995117
585.330078	8667.129883
583.480469	8659.654297
581.628906	8768.373047
579.779297	8798.695313
577.927734	8916.780273
576.076172	9064.509766
574.222656	9249.961914
572.371094	9664.729492
570.517578	9604.407227
568.664063	9572.438477
566.810547	9222.243164
564.955078	9175.549805
563.101563	9049.355469
561.246094	8963.646484
559.390625	8904.920898
557.533203	8935.116211
555.677734	8670.403320
553.820313	8477.166016
551.962891	8675.678711
550.105469	8338.553711
548.246094	8550.455078
546.386719	8417.951172
544.527344	8407.870117
542.667969	8571.206055
540.808594	8647.106445
538.947266	8722.968750
537.085938	8571.772461
535.224609	8540.174805
533.363281	8465.625977
531.500000	8260.903320
529.638672	8266.978516
527.775391	8360.261719
525.910156	8393.137695
524.046875	8653.979492
522.181641	8960.282227
520.316406	9664.547852
518.451172	9553.684570
516.585938	8900.256836
514.718750	8436.006836
512.851563	8324.176758
510.984375	8348.959961
509.117188	8316.174805
507.250000	8148.248047
505.380859	8070.038086
503.511719	8157.721191
501.642578	8242.687500
499.771484	8148.466309
497.902344	8131.812012
496.031250	8149.908203
494.160156	8087.838379
492.287109	8120.627441
490.416016	8136.041016
488.542969	8184.821289
486.669922	8100.111328
484.796875	8126.191895
482.921875	8134.917480
481.046875	8020.936523
479.171875	8071.017090
477.296875	8017.093262
475.421875	8083.142578
473.544922	8147.827637
471.667969	8125.893555
469.791016	8060.020020
467.914063	8187.241699
466.035156	8129.371094
464.156250	8120.769043
462.277344	8003.067871
460.398438	8120.867676
458.519531	8274.517578
456.638672	8293.807617
454.757813	8255.930664
452.876953	8182.189941
450.994141	8476.507813
449.113281	8400.092773
447.230469	8566.731445
445.347656	8443.861328
443.462891	8388.745117
441.580078	8368.156250
439.695313	8269.301758
437.810547	8285.888672
435.925781	8375.401367
434.039063	8356.159180
432.152344	8435.006836
430.267578	8519.117188
428.378906	8389.895508
426.492188	8270.006836
424.603516	8310.397461
422.714844	8369.302734
420.826172	8245.532227
418.937500	8301.777344
417.046875	8155.593262
415.158203	8127.187012
413.265625	8151.684570
411.375000	8192.032227
409.484375	8146.456055
407.591797	8199.998047
405.699219	8122.736816
403.806641	8099.659668
401.912109	8307.654297
400.019531	8197.420898
