#Wave		#Intensity
2109.224609	5102.489746
2107.712891	5077.680176
2106.201172	5189.027344
2104.687500	5156.493652
2103.175781	5117.362793
2101.662109	5033.629883
2100.150391	5201.064941
2098.636719	5069.447266
2097.123047	5114.593750
2095.607422	5108.536621
2094.093750	5044.705078
2092.578125	5183.900391
2091.064453	5148.131348
2089.548828	4991.950684
2088.033203	5010.666504
2086.517578	5110.173828
2085.000000	4988.723633
2083.484375	4972.814453
2081.966797	5068.969727
2080.449219	5092.591797
2078.931641	5048.667969
2077.414063	5039.347168
2075.894531	4952.645020
2074.376953	4991.086914
2072.857422	5105.218262
2071.337891	5081.084473
2069.818359	4969.771973
2068.298828	5070.676758
2066.777344	5087.675293
2065.257813	4992.873047
2063.736328	4993.444336
2062.214844	5049.888184
2060.693359	5103.021484
2059.171875	4952.449219
2057.648438	5066.343750
2056.126953	5006.148438
2054.603516	4990.300781
2053.080078	4999.077637
2051.556641	5073.484375
2050.033203	5006.777344
2048.507813	4979.461914
2046.984375	5071.862793
2045.458984	5105.204102
2043.933594	5081.163574
2042.408203	5037.468262
2040.882813	5016.729004
2039.355469	4982.894531
2037.830078	5045.697754
2036.302734	5041.343262
2034.775391	5004.250977
2033.248047	5040.823242
2031.718750	5011.928223
2030.191406	5028.852051
2028.662109	4993.429688
2027.134766	5033.243164
2025.605469	5007.644531
2024.076172	5009.843750
2022.544922	5056.164551
2021.015625	5113.902832
2019.484375	4934.760742
2017.955078	4884.712891
2016.423828	5042.050781
2014.892578	4957.720215
2013.359375	5044.795410
2011.828125	4996.398438
2010.294922	5109.530273
2008.761719	4995.897949
2007.230469	5019.292969
2005.695313	4912.250000
2004.162109	4969.882813
2002.628906	5025.861816
2001.093750	4902.592285
1999.558594	5088.878418
1998.023438	5017.763672
1996.488281	5057.401855
1994.953125	5007.486816
1993.417969	5066.641113
1991.880859	4821.478027
1990.343750	4921.318359
1988.806641	4923.523926
1987.269531	4872.063965
1985.732422	4919.802734
1984.193359	5053.672363
1982.656250	5005.467773
1981.117188	4955.659180
1979.578125	5019.583496
1978.039063	4976.289063
1976.500000	5027.191895
1974.958984	5001.771973
1973.417969	4986.101074
1971.878906	4855.222656
1970.337891	4920.708984
1968.796875	5004.009766
1967.253906	4892.670898
1965.712891	4935.408203
1964.169922	4979.748535
1962.626953	4972.208496
1961.083984	5034.345215
1959.541016	4926.357910
1957.998047	4970.661621
1956.455078	4883.784180
1954.910156	4866.558594
1953.365234	4939.981445
1951.820313	4950.261230
1950.275391	4991.276855
1948.730469	4990.217773
1947.183594	5006.949219
1945.638672	4915.341309
1944.091797	4945.013184
1942.544922	4935.883789
1940.998047	4917.062988
1939.449219	4966.101563
1937.902344	4935.975586
1936.353516	4959.151855
1934.804688	4870.918457
1933.255859	4986.104980
1931.707031	4834.964355
1930.158203	4937.201660
1928.607422	4844.208008
1927.058594	4915.756836
1925.507813	4922.777832
1923.957031	4989.443359
1922.406250	4931.975098
1920.853516	4843.914551
1919.302734	4970.163574
1917.750000	4901.460449
1916.197266	4926.189453
1914.644531	4849.474121
1913.091797	4914.445801
1911.539063	4906.968262
1909.984375	4896.275391
1908.431641	4916.152344
1906.876953	5003.571289
1905.322266	4893.167969
1903.767578	4884.094238
1902.210938	4855.736328
1900.656250	4899.705078
1899.099609	4937.228027
1897.542969	4926.545898
1895.986328	4813.085938
1894.429688	4934.096191
1892.873047	4960.342285
1891.314453	4872.626465
1889.755859	4791.365723
1888.199219	4901.046875
1886.640625	4891.991211
1885.080078	4857.281738
1883.521484	4930.004395
1881.960938	4925.756348
1880.402344	4932.728027
1878.841797	4891.629395
1877.281250	4839.334961
1875.720703	4940.812012
1874.158203	4918.952148
1872.597656	4764.227539
1871.035156	4897.666504
1869.472656	4965.440430
1867.910156	4994.789063
1866.347656	4916.956055
1864.783203	4911.119629
1863.220703	4836.534668
1861.656250	4925.029785
1860.091797	4900.016602
1858.527344	4835.067871
1856.962891	4960.249512
1855.396484	4896.912109
1853.832031	4977.315918
1852.265625	4869.299805
1850.699219	4825.174805
1849.132813	4793.835449
1847.566406	4958.752441
1845.998047	4925.802246
1844.431641	4827.479004
1842.863281	4866.321289
1841.294922	4841.381348
1839.726563	4897.735840
1838.156250	4997.089355
1836.587891	4874.956543
1835.017578	4897.818848
1833.449219	4810.792480
1831.878906	4883.013672
1830.306641	4859.697754
1828.736328	4892.091797
1827.166016	5021.529297
1825.593750	4921.841309
1824.021484	4986.009766
1822.449219	4886.370605
1820.876953	4875.800293
1819.304688	4928.811035
1817.730469	4856.261230
1816.158203	4921.963379
1814.583984	4943.162109
1813.009766	4918.296875
1811.435547	4942.662598
1809.859375	4998.765625
1808.285156	4953.271973
1806.708984	4985.547363
1805.132813	4873.446289
1803.556641	4853.384277
1801.980469	4860.288086
1800.404297	4921.092285
1798.826172	4853.479980
1797.248047	4987.157715
1795.671875	4930.650391
1794.093750	4935.945313
1792.513672	4914.314453
1790.935547	4881.608398
1789.355469	4970.812012
1787.777344	4873.215820
1786.197266	4918.076172
1784.617188	4999.304199
1783.035156	4824.258789
1781.455078	5025.657715
1779.873047	4992.975098
1778.292969	4904.980469
1776.710938	4989.285156
1775.128906	4962.950684
1773.544922	4941.365723
1771.962891	4968.750488
1770.378906	4969.279785
1768.794922	5070.846680
1767.212891	5055.569824
1765.626953	5133.404297
1764.042969	5247.493164
1762.458984	5025.550293
1760.873047	5238.967285
1759.287109	5182.675293
1757.701172	5343.947754
1756.115234	5178.908691
1754.529297	5209.328613
1752.941406	5255.489258
1751.355469	5188.226074
1749.767578	5292.635254
1748.179688	5305.686035
1746.591797	5217.991699
1745.001953	5196.429688
1743.414063	5118.235352
1741.824219	5233.559082
1740.234375	5172.688965
1738.644531	5232.918457
1737.054688	5181.505859
1735.462891	5254.281250
1733.873047	5119.601563
1732.281250	5181.361328
1730.689453	5206.967285
1729.097656	5150.902344
1727.505859	5201.624512
1725.912109	5140.874512
1724.320313	5224.534180
1722.726563	5179.494629
1721.132813	5238.010742
1719.539063	5260.428223
1717.945313	5226.385742
1716.349609	5234.686035
1714.755859	5290.004395
1713.160156	5398.580078
1711.564453	5301.865723
1709.968750	5292.911133
1708.371094	5401.416504
1706.775391	5451.942383
1705.177734	5530.624023
1703.580078	5325.991699
1701.982422	5507.939941
1700.384766	5369.104004
1698.787109	5521.248047
1697.187500	5423.125000
1695.587891	5514.218262
1693.990234	5564.632324
1692.390625	5510.318848
1690.789063	5499.776855
1689.189453	5526.729004
1687.587891	5687.981934
1685.988281	5772.655762
1684.386719	5691.815430
1682.785156	5781.133789
1681.181641	5801.754395
1679.580078	5903.492188
1677.976563	5966.191406
1676.373047	5899.428711
1674.769531	6066.562988
1673.166016	6063.717285
1671.562500	6157.497559
1669.957031	6129.702637
1668.353516	6165.789063
1666.748047	6379.412109
1665.142578	6378.058105
1663.537109	6435.863281
1661.929688	6450.061523
1660.324219	6587.189941
1658.716797	6775.601563
1657.109375	6699.499023
1655.501953	6866.033691
1653.894531	7027.832520
1652.285156	7029.448730
1650.677734	7170.938965
1649.068359	7262.645508
1647.458984	7240.906738
1645.849609	7439.728027
1644.240234	7644.675781
1642.628906	7661.681152
1641.019531	7615.038574
1639.408203	7681.701660
1637.796875	7749.886719
1636.185547	7752.892578
1634.572266	7741.938477
1632.960938	7796.110840
1631.347656	7933.971191
1629.734375	7960.181152
1628.121094	8032.865234
1626.507813	8043.549805
1624.894531	8127.026855
1623.279297	8123.748047
1621.664063	8176.206543
1620.048828	8415.938477
1618.433594	8312.006836
1616.818359	8293.216797
1615.203125	8435.312500
1613.585938	8500.018555
1611.968750	8552.327148
1610.351563	8604.611328
1608.734375	8761.974609
1607.117188	8849.732422
1605.498047	9054.867188
1603.878906	9057.570313
1602.261719	9128.219727
1600.640625	9294.563477
1599.021484	9422.245117
1597.402344	9741.239258
1595.781250	9705.215820
1594.162109	9949.965820
1592.541016	9961.722656
1590.919922	9978.100586
1589.296875	10093.134766
1587.675781	9975.381836
1586.052734	9809.907227
1584.429688	9707.669922
1582.806641	9731.782227
1581.183594	9537.203125
1579.560547	9527.467773
1577.935547	9368.418945
1576.312500	9384.884766
1574.687500	9504.434570
1573.062500	9393.179688
1571.435547	9437.312500
1569.810547	9579.836914
1568.183594	9745.361328
1566.558594	9743.276367
1564.931641	9695.090820
1563.304688	9646.924805
1561.675781	9750.847656
1560.048828	9550.652344
1558.419922	9505.617188
1556.791016	9455.995117
1555.162109	9575.213867
1553.533203	9666.761719
1551.904297	9572.646484
1550.273438	9639.614258
1548.642578	9781.690430
1547.011719	9554.229492
1545.380859	9783.628906
1543.750000	9591.509766
1542.119141	9601.709961
1540.486328	9368.352539
1538.853516	9393.909180
1537.220703	9024.424805
1535.587891	8939.826172
1533.955078	8898.115234
1532.320313	8715.649414
1530.685547	8774.970703
1529.052734	8647.669922
1527.416016	8702.391602
1525.781250	8647.013672
1524.146484	8726.166016
1522.509766	8621.904297
1520.873047	8603.245117
1519.236328	8654.859375
1517.599609	8711.031250
1515.962891	8741.222656
1514.324219	8927.105469
1512.687500	9047.280273
1511.048828	9091.110352
1509.410156	9057.118164
1507.771484	8971.282227
1506.130859	8858.035156
1504.492188	8763.130859
1502.851563	8669.791016
1501.210938	8722.784180
1499.570313	8495.416992
1497.927734	8425.041016
1496.287109	8376.015625
1494.644531	8336.146484
1493.001953	8428.729492
1491.359375	8267.110352
1489.716797	8152.729004
1488.074219	8357.864258
1486.429688	8339.331055
1484.785156	8381.629883
1483.140625	8504.484375
1481.496094	8378.012695
1479.851563	8573.755859
1478.207031	8661.543945
1476.560547	8560.940430
1474.914063	8654.765625
1473.267578	8649.859375
1471.621094	8585.752930
1469.972656	8489.802734
1468.326172	8413.618164
1466.677734	8376.908203
1465.029297	8346.280273
1463.380859	8259.559570
1461.732422	8485.176758
1460.082031	8306.003906
1458.431641	8348.152344
1456.783203	8193.327148
1455.132813	8149.141602
1453.480469	8079.229980
1451.830078	7904.877930
1450.177734	7950.091309
1448.527344	7768.274414
1446.875000	7703.042480
1445.220703	7583.378906
1443.568359	7416.881836
1441.916016	7465.172363
1440.261719	7295.748535
1438.607422	7356.134766
1436.953125	7390.805176
1435.298828	7437.546387
1433.642578	7372.493164
1431.988281	7358.812012
1430.332031	7423.645020
1428.675781	7453.731445
1427.019531	7562.279297
1425.361328	7538.004395
1423.705078	7546.925781
1422.046875	7589.021973
1420.388672	7655.224121
1418.730469	7656.574707
1417.072266	7710.674805
1415.412109	7663.792480
1413.753906	7621.449219
1412.093750	7628.827637
1410.433594	7621.144043
1408.773438	7803.159180
1407.111328	8031.755859
1405.451172	8221.125977
1403.789063	8432.980469
1402.126953	8560.505859
1400.464844	8815.805664
1398.802734	8746.223633
1397.138672	8580.463867
1395.474609	8392.232422
1393.812500	8301.750000
1392.146484	8139.197754
1390.482422	7936.164063
1388.818359	7844.335938
1387.152344	7817.102051
1385.486328	7717.833984
1383.820313	7741.659180
1382.154297	7873.493164
1380.488281	7936.270996
1378.820313	7916.541016
1377.154297	8132.209473
1375.486328	8106.447754
1373.818359	8059.715820
1372.148438	8315.664063
1370.480469	8289.876953
1368.810547	8207.188477
1367.140625	8371.596680
1365.470703	8344.314453
1363.800781	8343.984375
1362.130859	8191.025391
1360.458984	8126.398438
1358.787109	8060.302734
1357.115234	8154.239746
1355.443359	8294.481445
1353.771484	8486.975586
1352.097656	8595.698242
1350.423828	8871.708008
1348.751953	8928.016602
1347.076172	9235.191406
1345.402344	9422.784180
1343.728516	9932.727539
1342.052734	10143.961914
1340.376953	10666.949219
1338.701172	10776.488281
1337.025391	11191.721680
1335.347656	11468.098633
1333.671875	11634.036133
1331.994141	11582.292969
1330.316406	11831.576172
1328.638672	11945.177734
1326.960938	12003.617188
1325.281250	11932.474609
1323.601563	11932.826172
1321.921875	11730.741211
1320.242188	11509.399414
1318.562500	11413.130859
1316.880859	11006.015625
1315.201172	10814.719727
1313.519531	10336.544922
1311.837891	9934.392578
1310.154297	9642.395508
1308.472656	9454.535156
1306.789063	9133.059570
1305.105469	8869.648438
1303.421875	8683.565430
1301.738281	8500.533203
1300.054688	8204.780273
1298.369141	7900.253418
1296.683594	8000.874023
1294.998047	7754.371582
1293.312500	7540.601074
1291.626953	7558.207520
1289.939453	7289.729980
1288.253906	7295.527344
1286.566406	7114.639648
1284.878906	7234.529785
1283.189453	7041.886719
1281.501953	7022.560059
1279.812500	7065.413574
1278.123047	6978.010742
1276.433594	6945.392578
1274.744141	6791.485352
1273.052734	6787.021973
1271.363281	6877.193359
1269.671875	6742.619629
1267.980469	6730.777832
1266.289063	6742.583496
1264.595703	6512.100098
1262.904297	6526.901855
1261.210938	6670.167480
1259.517578	6537.291016
1257.824219	6507.794434
1256.128906	6510.775391
1254.435547	6482.771973
1252.740234	6535.907715
1251.044922	6589.019043
1249.349609	6643.580566
1247.652344	6622.939941
1245.957031	6780.628906
1244.259766	6997.183594
1242.562500	6839.480469
1240.865234	6942.522461
1239.167969	6914.473145
1237.468750	7008.618652
1235.769531	6948.186523
1234.072266	6886.309570
1232.371094	6871.534668
1230.671875	6740.574219
1228.972656	6617.023438
1227.271484	6505.288574
1225.570313	6443.575684
1223.869141	6600.839844
1222.167969	6458.329102
1220.464844	6333.507324
1218.763672	6296.849121
1217.060547	6320.401367
1215.357422	6280.825684
1213.654297	6321.979492
1211.949219	6175.316406
1210.246094	6121.129395
1208.541016	6194.552734
1206.835938	6288.469238
1205.130859	6257.745117
1203.423828	6313.500000
1201.718750	6206.592285
1200.011719	6060.180176
1198.304688	5992.918457
1196.597656	5919.829102
1194.888672	5734.052734
1193.181641	5813.263672
1191.472656	5782.695801
1189.763672	5939.393066
1188.054688	5970.237793
1186.343750	5787.579590
1184.634766	5898.848633
1182.923828	5776.212402
1181.212891	5815.831543
1179.501953	5874.423828
1177.791016	5798.613281
1176.078125	5874.705566
1174.365234	5823.747070
1172.652344	5876.444336
1170.939453	5797.780762
1169.226563	5692.890137
1167.511719	5637.640137
1165.798828	5525.540527
1164.083984	5417.864258
1162.369141	5434.136719
1160.652344	5504.322266
1158.937500	5406.920898
1157.220703	5337.239746
1155.503906	5283.608887
1153.787109	5216.897461
1152.070313	5246.291016
1150.351563	5221.822754
1148.632813	5233.740234
1146.916016	5200.556641
1145.195313	5295.372070
1143.476563	5214.204590
1141.757813	5117.082031
1140.037109	5192.956543
1138.316406	5233.922363
1136.595703	5241.456543
1134.875000	5241.725098
1133.152344	5237.636230
1131.429688	5237.904297
1129.708984	5216.399902
1127.984375	5126.704102
1126.261719	5032.695313
1124.539063	5048.961914
1122.814453	4865.105957
1121.089844	5049.576660
1119.365234	5080.321289
1117.640625	5057.433594
1115.914063	5036.004883
1114.187500	5023.276367
1112.462891	5020.689941
1110.734375	5052.851563
1109.007813	5048.811035
1107.281250	4978.202637
1105.552734	4953.924316
1103.824219	4777.774414
1102.095703	4980.599609
1100.367188	4933.202148
1098.636719	4871.370605
1096.908203	4835.580078
1095.177734	4918.283203
1093.447266	4716.376465
1091.714844	4653.204102
1089.984375	4629.044922
1088.251953	4587.573242
1086.519531	4439.322266
1084.787109	4475.827148
1083.054688	4572.902832
1081.320313	4512.730957
1079.585938	4484.307617
1077.851563	4432.831543
1076.117188	4492.354004
1074.382813	4422.166992
1072.648438	4473.020508
1070.912109	4467.680664
1069.175781	4407.625000
1067.439453	4468.522949
1065.701172	4415.689941
1063.964844	4372.953613
1062.226563	4346.060547
1060.488281	4322.056152
1058.750000	4443.296387
1057.011719	4379.025879
1055.271484	4367.964844
1053.531250	4339.664551
1051.791016	4421.998535
1050.050781	4306.082520
1048.310547	4351.050293
1046.568359	4390.253906
1044.826172	4377.767090
1043.083984	4320.800781
1041.341797	4370.025879
1039.599609	4427.833984
1037.855469	4372.328125
1036.113281	4422.939941
1034.369141	4437.693848
1032.623047	4491.132813
1030.878906	4464.315430
1029.132813	4509.128418
1027.386719	4565.376953
1025.640625	4613.009277
1023.894531	4591.911621
1022.148438	4636.652832
1020.400391	4678.511230
1018.652344	4687.450684
1016.904297	4710.686035
1015.156250	4821.125488
1013.406250	4769.988770
1011.658203	4903.228027
1009.908203	4854.952637
1008.158203	5005.251465
1006.408203	4822.731445
1004.656250	4988.673340
1002.904297	4924.718262
1001.152344	4820.832520
999.400391	4842.552734
997.648438	4869.967773
995.896484	4771.869629
994.142578	4622.486816
992.388672	4533.042480
990.634766	4576.178223
988.878906	4512.432129
987.125000	4481.478027
985.369141	4319.513672
983.613281	4364.081055
981.857422	4469.838867
980.099609	4434.651855
978.343750	4351.103027
976.585938	4379.972656
974.828125	4344.829102
973.070313	4407.811035
971.310547	4324.343750
969.552734	4442.727539
967.792969	4474.382324
966.033203	4542.956543
964.273438	4513.501953
962.511719	4795.020508
960.750000	4879.086914
958.990234	5014.206543
957.226563	5221.628906
955.464844	5092.747559
953.703125	5108.588867
951.939453	4965.613281
950.175781	5021.168457
948.412109	4781.903320
946.648438	4824.721680
944.882813	4708.857910
943.117188	4806.907715
941.351563	4768.979004
939.585938	4537.125000
937.820313	4674.773926
936.052734	4717.554688
934.285156	4816.901367
932.517578	4771.940430
930.750000	4751.037598
928.982422	4798.000000
927.212891	4819.500000
925.443359	4849.467773
923.673828	5122.403320
921.904297	5427.695801
920.132813	5511.157227
918.361328	5700.457031
916.591797	5751.353516
914.818359	5614.556641
913.046875	5579.394043
911.275391	5376.411133
909.501953	5197.493164
907.728516	5070.817871
905.955078	4865.274414
904.179688	4707.734375
902.406250	4557.311035
900.630859	4501.321777
898.855469	4351.015625
897.080078	4309.177246
895.302734	4272.987793
893.525391	4245.257324
891.750000	4247.081543
889.970703	4194.053223
888.193359	4170.577637
886.416016	4090.880371
884.636719	4085.710205
882.857422	4198.574219
881.078125	4218.666992
879.296875	4242.963379
877.517578	4173.169434
875.736328	3970.043213
873.955078	4007.010986
872.173828	3934.513428
870.390625	3925.177490
868.609375	3873.769775
866.826172	3882.680176
865.042969	3885.978516
863.259766	3809.386963
861.474609	3777.669922
859.689453	3741.764404
857.904297	3773.102295
856.119141	3765.218506
854.333984	3667.744629
852.546875	3686.480469
850.761719	3733.192139
848.974609	3705.738770
847.185547	3864.310791
845.398438	3880.185059
843.609375	3738.084717
841.822266	3767.956543
840.031250	3790.827393
838.242188	3721.488281
836.453125	3867.261963
834.662109	3767.218262
832.871094	3695.140381
831.080078	3662.174072
829.289063	3693.407471
827.496094	3668.826172
825.703125	3663.781250
823.910156	3696.385742
822.117188	3680.183838
820.324219	3730.886230
818.529297	3695.176514
816.734375	3731.920410
814.939453	3754.719727
813.144531	3776.115723
811.347656	3751.563721
809.550781	3867.586426
807.755859	3774.845459
805.957031	3846.293457
804.160156	3800.885498
802.361328	3830.580811
800.564453	3822.729492
798.765625	3934.400391
796.964844	3725.060303
795.166016	3770.024170
793.365234	3810.800049
791.564453	3733.538330
789.763672	3821.499023
787.962891	3816.435791
786.160156	3904.334961
784.359375	3767.475342
782.556641	3752.719482
780.751953	3744.902832
778.949219	3688.573730
777.144531	3711.263672
775.339844	3678.521973
773.535156	3771.846924
771.730469	3782.036133
769.925781	3812.988281
768.119141	3752.568115
766.312500	3759.986084
764.505859	3727.277100
762.697266	3694.583252
760.890625	3778.067871
759.082031	3713.577637
757.273438	3723.758789
755.464844	3851.397461
753.654297	3883.645752
751.845703	3936.597656
750.035156	4098.618164
748.224609	4285.412109
746.412109	4403.104004
744.601563	4676.674316
742.789063	5151.541504
740.976563	5692.390137
739.164063	6559.800293
737.349609	7998.940430
735.537109	9793.006836
733.722656	11423.620117
731.908203	12404.576172
730.091797	12511.828125
728.277344	11152.500000
726.460938	9256.903320
724.644531	7468.183105
722.828125	6249.991699
721.009766	5659.704102
719.193359	5270.502930
717.375000	4929.613281
715.556641	4686.490723
713.736328	4442.108887
711.917969	4273.416992
710.097656	4023.752930
708.277344	3992.583496
706.457031	3894.145752
704.636719	3912.441406
702.814453	3739.955811
700.992188	3791.209961
699.169922	3729.950928
697.347656	3862.099854
695.523438	3777.542725
693.699219	3845.187988
691.875000	3866.203369
690.050781	3942.015869
688.226563	3889.025391
686.400391	3814.147217
684.574219	3863.902100
682.748047	3805.491455
680.921875	3647.203369
679.095703	3627.181885
677.267578	3748.063721
675.439453	3680.161621
673.611328	3661.512695
671.781250	3779.565430
669.953125	3872.962646
668.123047	4022.333008
666.292969	3935.321289
664.460938	3983.548096
662.630859	3938.910889
660.798828	3909.309570
658.966797	3860.616455
657.134766	3926.550293
655.302734	4023.824707
653.468750	3962.864990
651.634766	3859.669922
649.800781	3895.553223
647.966797	3921.880127
646.130859	3989.065674
644.294922	3979.943604
642.458984	4006.230469
640.623047	3878.665039
638.787109	3900.879639
636.949219	3951.659668
635.111328	3903.102783
633.273438	3921.214600
631.435547	3952.915039
629.595703	3869.045654
627.757813	3926.566650
625.917969	3965.036621
624.076172	4027.940674
622.236328	4009.324219
620.394531	3940.475830
618.552734	3935.463623
616.710938	4009.171143
614.869141	3852.174316
613.025391	3737.304932
611.183594	3863.898926
609.339844	3730.098389
607.494141	3622.117432
605.650391	3571.108643
603.804688	3520.123779
601.958984	3421.751465
600.113281	3526.569336
598.267578	3541.975342
596.419922	3500.520508
594.572266	3459.085205
592.724609	3429.846436
590.876953	3475.018311
589.027344	3443.084473
587.179688	3500.399414
585.330078	3445.495117
583.480469	3408.184814
581.628906	3374.945313
579.779297	3484.899414
577.927734	3561.040283
576.076172	3591.241455
574.222656	3582.284912
572.371094	3588.176025
570.517578	3523.909668
568.664063	3624.227539
566.810547	3600.437012
564.955078	3532.168701
563.101563	3600.063721
561.246094	3600.550537
559.390625	3499.997559
557.533203	3492.426514
555.677734	3426.957275
553.820313	3529.796875
551.962891	3411.859131
550.105469	3381.440430
548.246094	3341.619141
546.386719	3365.028564
544.527344	3407.251465
542.667969	3405.091797
540.808594	3445.940430
538.947266	3505.580078
537.085938	3491.307861
535.224609	3483.757568
533.363281	3458.755371
531.500000	3445.846436
529.638672	3442.337646
527.775391	3476.398438
525.910156	3495.687500
524.046875	3592.749268
522.181641	4109.421875
520.316406	4735.762207
518.451172	4461.245117
516.585938	3842.531494
514.718750	3538.890381
512.851563	3341.187500
510.984375	3317.627197
509.117188	3201.720703
507.250000	3234.408691
505.380859	3180.119385
503.511719	3188.720703
501.642578	3141.153809
499.771484	3069.545166
497.902344	3116.927246
496.031250	3030.659424
494.160156	3056.652588
492.287109	3098.660400
490.416016	3137.977295
488.542969	3150.575684
486.669922	3193.864990
484.796875	3066.336426
482.921875	3212.345215
481.046875	3096.876465
479.171875	3108.135010
477.296875	3100.724854
475.421875	3153.291992
473.544922	3056.601318
471.667969	3129.135010
469.791016	3015.182617
467.914063	3090.354248
466.035156	3039.029785
464.156250	3058.263916
462.277344	3073.497314
460.398438	2992.948730
458.519531	3008.190186
456.638672	2960.934570
454.757813	2994.785156
452.876953	2950.212891
450.994141	3001.321533
449.113281	2996.617432
447.230469	2975.979736
445.347656	3108.031494
443.462891	2967.916748
441.580078	2989.764648
439.695313	3034.155762
437.810547	2979.046875
435.925781	2991.593506
434.039063	3000.156738
432.152344	2992.810547
430.267578	3119.303467
428.378906	3027.145508
426.492188	3054.233887
424.603516	3009.804688
422.714844	3141.467041
420.826172	3099.685059
418.937500	3011.610596
417.046875	3119.365479
415.158203	3051.166992
413.265625	3054.402344
411.375000	2996.827148
409.484375	2932.671387
407.591797	2970.286133
405.699219	2988.068115
403.806641	3020.368896
401.912109	2931.181396
400.019531	2975.360107
