#Wave		#Intensity
1585.210938	15922.492188
1584.209961	16287.148438
1583.208984	16049.043945
1582.208008	16163.059570
1581.206055	16102.300781
1580.204102	16221.248047
1579.202148	15811.193359
1578.200195	15980.041016
1577.198242	16146.325195
1576.195313	15803.863281
1575.192383	15793.110352
1574.189453	15717.557617
1573.186523	15726.761719
1572.182617	15723.503906
1571.178711	15633.065430
1570.174805	15667.183594
1569.170898	15708.756836
1568.166992	15715.460938
1567.162109	15784.383789
1566.158203	15412.838867
1565.153320	15655.943359
1564.147461	15702.447266
1563.142578	15537.553711
1562.136719	15708.375977
1561.130859	15742.410156
1560.125000	15796.311523
1559.119141	16121.026367
1558.113281	16279.164063
1557.106445	16082.063477
1556.099609	16468.595703
1555.092773	16517.322266
1554.084961	16486.597656
1553.078125	17116.007813
1552.070313	17330.804688
1551.062500	17232.953125
1550.054688	17531.958984
1549.045898	17637.431641
1548.038086	18124.640625
1547.029297	18125.845703
1546.020508	18302.990234
1545.011719	18715.429688
1544.001953	18847.792969
1542.992188	19101.449219
1541.982422	19260.912109
1540.972656	19420.306641
1539.962891	19502.910156
1538.952148	19540.939453
1537.942383	19499.783203
1536.931641	19354.759766
1535.919922	19308.712891
1534.909180	19344.273438
1533.897461	19095.548828
1532.886719	18612.142578
1531.874023	18450.152344
1530.862305	18004.134766
1529.850586	17627.457031
1528.837891	17776.906250
1527.825195	17168.357422
1526.812500	16851.324219
1525.799805	16771.333984
1524.786133	16587.746094
1523.772461	16584.312500
1522.758789	16127.080078
1521.745117	15946.205078
1520.731445	15873.875000
1519.716797	15799.110352
1518.702148	15800.766602
1517.687500	15992.129883
1516.672852	15518.341797
1515.657227	15958.416992
1514.642578	15711.353516
1513.626953	15981.348633
1512.610352	15941.121094
1511.594727	16033.786133
1510.579102	15900.076172
1509.562500	15857.428711
1508.545898	15718.890625
1507.529297	15927.078125
1506.511719	15985.232422
1505.494141	15991.751953
1504.477539	16054.781250
1503.458984	15734.553711
1502.441406	16134.093750
1501.423828	16042.350586
1500.405273	15908.907227
1499.386719	15792.701172
1498.368164	15961.213867
1497.348633	16338.207031
1496.330078	16079.706055
1495.310547	16078.826172
1494.291016	15989.673828
1493.271484	16062.357422
1492.250977	16272.266602
1491.231445	15898.869141
1490.210938	16157.723633
1489.190430	16208.263672
1488.168945	16273.475586
1487.148438	15998.322266
1486.126953	16278.970703
1485.105469	16148.328125
1484.083984	16431.273438
1483.061523	16364.260742
1482.040039	16488.056641
1481.017578	16474.857422
1479.995117	16698.818359
1478.971680	16917.798828
1477.949219	16892.294922
1476.925781	16959.650391
1475.902344	17315.240234
1474.878906	17575.427734
1473.855469	17928.296875
1472.831055	18151.626953
1471.806641	18277.228516
1470.782227	18710.261719
1469.757813	18862.531250
1468.733398	19224.521484
1467.708008	19605.871094
1466.682617	20328.427734
1465.657227	20312.021484
1464.631836	21119.437500
1463.605469	21395.289063
1462.579102	21978.001953
1461.552734	22677.390625
1460.526367	23403.275391
1459.500000	23578.593750
1458.472656	23814.693359
1457.445313	23880.330078
1456.417969	23787.775391
1455.390625	23970.162109
1454.362305	23668.447266
1453.334961	23629.488281
1452.306641	22800.384766
1451.277344	22584.173828
1450.249023	21760.488281
1449.219727	21262.730469
1448.191406	20767.607422
1447.162109	20216.828125
1446.131836	19695.414063
1445.102539	19069.824219
1444.072266	18942.074219
1443.041992	18467.353516
1442.011719	18046.207031
1440.981445	17909.042969
1439.950195	17830.140625
1438.918945	17581.541016
1437.887695	17347.587891
1436.856445	17123.425781
1435.825195	16930.857422
1434.792969	17302.853516
1433.760742	16996.484375
1432.728516	16745.937500
1431.696289	16846.566406
1430.663086	16605.837891
1429.629883	16333.745117
1428.596680	16272.276367
1427.563477	16198.736328
1426.530273	16253.414063
1425.496094	16141.215820
1424.461914	16002.469727
1423.427734	15897.619141
1422.393555	15771.062500
1421.358398	15775.029297
1420.323242	15551.922852
1419.288086	15519.704102
1418.252930	15695.157227
1417.217773	15402.193359
1416.181641	15435.191406
1415.145508	15542.982422
1414.109375	15496.318359
1413.073242	15724.656250
1412.036133	15895.018555
1411.000000	15954.396484
1409.962891	16011.338867
1408.924805	16383.982422
1407.887695	16525.146484
1406.849609	16820.433594
1405.812500	17416.673828
1404.773438	17369.697266
1403.735352	18249.669922
1402.697266	18356.593750
1401.658203	18586.207031
1400.619141	18584.740234
1399.580078	18867.130859
1398.540039	19267.253906
1397.500977	19169.457031
1396.460938	18922.646484
1395.420898	18906.681641
1394.380859	18936.380859
1393.339844	18639.314453
1392.298828	18474.486328
1391.257813	18264.095703
1390.216797	18233.871094
1389.175781	18047.621094
1388.133789	18247.863281
1387.091797	18282.447266
1386.049805	18321.814453
1385.007813	18464.302734
1383.964844	18589.945313
1382.922852	18732.314453
1381.879883	19121.525391
1380.835938	19287.687500
1379.792969	19597.546875
1378.749023	19936.019531
1377.706055	19965.386719
1376.661133	19846.275391
1375.617188	20337.701172
1374.573242	20352.599609
1373.528320	20487.144531
1372.483398	20315.380859
1371.438477	20428.345703
1370.392578	20445.599609
1369.347656	20324.162109
1368.301758	20293.615234
1367.255859	19981.050781
1366.208984	19862.171875
1365.163086	20242.658203
1364.116211	19961.347656
1363.069336	19985.828125
1362.022461	19914.792969
1360.974609	20003.720703
1359.927734	20049.652344
1358.879883	20031.138672
1357.832031	20079.425781
1356.783203	20106.228516
1355.735352	20030.480469
1354.686523	20314.759766
1353.637695	20536.943359
1352.588867	21109.347656
1351.539063	21204.994141
1350.490234	21648.382813
1349.440430	22263.056641
1348.390625	22853.662109
1347.339844	23384.503906
1346.290039	23646.171875
1345.239258	24514.523438
1344.188477	25363.476563
1343.137695	25814.845703
1342.085938	26589.445313
1341.034180	26766.943359
1339.982422	27205.843750
1338.930664	28065.216797
1337.878906	28342.082031
1336.826172	28606.951172
1335.773438	28494.068359
1334.720703	28654.308594
1333.667969	28565.197266
1332.614258	28407.289063
1331.561523	28002.642578
1330.507813	27313.449219
1329.453125	27184.361328
1328.399414	26974.693359
1327.344727	26426.039063
1326.290039	26074.376953
1325.235352	25737.080078
1324.180664	25338.314453
1323.125000	25224.007813
1322.070313	25114.484375
1321.014648	24905.544922
1319.958008	24426.783203
1318.902344	24251.210938
1317.845703	24518.271484
1316.789063	23871.892578
1315.732422	23277.826172
1314.675781	22811.726563
1313.618164	22357.644531
1312.560547	22026.685547
1311.502930	21624.957031
1310.445313	20904.371094
1309.386719	20276.228516
1308.329102	19875.117188
1307.270508	19646.574219
1306.210938	19028.535156
1305.152344	18729.443359
1304.092773	18185.019531
1303.033203	18119.835938
1301.973633	17856.507813
1300.914063	17539.041016
1299.853516	17405.642578
1298.792969	17331.242188
1297.732422	17395.945313
1296.671875	17166.033203
1295.611328	16964.494141
1294.549805	17123.455078
1293.488281	16912.585938
1292.426758	16998.494141
1291.364258	16900.738281
1290.302734	16810.082031
1289.240234	16684.166016
1288.177734	16911.207031
1287.114258	16935.861328
1286.051758	16871.140625
1284.988281	16684.181641
1283.924805	16570.171875
1282.861328	16710.033203
1281.796875	17016.664063
1280.732422	16947.287109
1279.667969	16974.238281
1278.603516	17186.685547
1277.539063	17159.572266
1276.473633	17662.945313
1275.408203	17778.892578
1274.342773	18166.953125
1273.277344	18163.107422
1272.210938	18325.775391
1271.145508	18558.716797
1270.079102	18353.181641
1269.011719	18417.263672
1267.945313	18291.513672
1266.877930	17879.996094
1265.810547	17768.464844
1264.743164	17764.699219
1263.674805	17278.630859
1262.607422	17160.269531
1261.539063	16878.138672
1260.470703	16689.716797
1259.401367	16311.890625
1258.333008	16210.202148
1257.263672	15979.948242
1256.194336	15805.898438
1255.125000	15449.610352
1254.054688	15785.169922
1252.985352	15260.820313
1251.915039	15245.901367
1250.843750	14925.060547
1249.773438	14991.935547
1248.702148	15007.426758
1247.630859	15013.574219
1246.559570	15080.384766
1245.488281	14594.281250
1244.416016	14642.491211
1243.343750	14548.436523
1242.271484	14575.651367
1241.199219	14481.648438
1240.125977	14410.988281
1239.053711	14417.242188
1237.980469	14446.786133
1236.906250	14348.228516
1235.833008	14310.250000
1234.758789	14360.745117
1233.684570	14346.051758
1232.610352	14045.154297
1231.536133	14232.928711
1230.460938	14260.133789
1229.385742	14350.113281
1228.310547	14140.138672
1227.235352	14188.262695
1226.159180	14392.068359
1225.083008	14203.125977
1224.006836	14316.245117
1222.930664	14155.266602
1221.853516	14205.653320
1220.777344	14235.123047
1219.700195	14582.550781
1218.622070	14586.400391
1217.544922	14833.843750
1216.466797	14647.440430
1215.388672	14994.478516
1214.310547	15137.340820
1213.232422	14825.817383
1212.153320	15035.859375
1211.074219	15176.300781
1209.995117	15112.830078
1208.916016	15348.149414
1207.835938	15219.831055
1206.755859	15218.893555
1205.675781	15363.768555
1204.595703	15064.288086
1203.514648	15014.795898
1202.434570	15013.897461
1201.353516	15184.125977
1200.271484	14975.105469
1199.190430	14937.227539
1198.108398	14679.814453
1197.026367	14565.764648
1195.944336	14763.621094
1194.862305	14596.480469
1193.779297	14200.811523
1192.696289	14234.706055
1191.613281	13989.307617
1190.530273	14057.844727
1189.446289	14112.508789
1188.362305	13523.606445
1187.278320	13506.870117
1186.194336	13612.337891
1185.109375	13616.333008
1184.024414	13583.452148
1182.939453	13363.949219
1181.854492	13338.044922
1180.768555	13353.607422
1179.683594	13159.621094
1178.597656	13177.515625
1177.510742	13252.941406
1176.424805	13141.940430
1175.337891	13100.005859
1174.250977	12885.575195
1173.164063	13027.685547
1172.077148	13091.562500
1170.989258	12996.799805
1169.901367	13322.647461
1168.813477	13115.287109
1167.724609	13220.435547
1166.636719	13433.482422
1165.547852	13145.860352
1164.458984	13356.534180
1163.369141	13211.354492
1162.280273	13472.405273
1161.190430	13320.378906
1160.100586	13553.766602
1159.010742	13615.058594
1157.919922	13577.733398
1156.829102	13616.068359
1155.738281	13560.423828
1154.647461	13339.829102
1153.555664	13524.797852
1152.464844	13542.494141
1151.373047	13560.181641
1150.280273	13843.419922
1149.188477	13744.302734
1148.095703	13656.669922
1147.002930	13688.040039
1145.910156	13627.901367
1144.817383	13508.331055
1143.723633	13299.643555
1142.629883	13573.358398
1141.536133	13348.747070
1140.441406	13217.911133
1139.347656	13486.894531
1138.252930	13303.553711
1137.158203	13209.342773
1136.062500	13124.302734
1134.967773	12945.720703
1133.872070	13239.567383
1132.776367	12899.055664
1131.679688	13126.636719
1130.583984	12918.558594
1129.487305	13271.430664
1128.390625	13165.983398
1127.292969	13037.791016
1126.196289	13096.485352
1125.098633	13209.824219
1124.000977	13093.089844
1122.903320	13101.636719
1121.804688	13160.262695
1120.706055	13089.130859
1119.607422	13086.292969
1118.508789	13103.930664
1117.409180	13210.263672
1116.310547	12900.408203
1115.210938	12979.456055
1114.110352	12849.350586
1113.010742	12957.915039
1111.910156	12898.301758
1110.809570	13054.508789
1109.708984	13106.178711
1108.607422	12989.804688
1107.506836	12968.822266
1106.405273	12870.683594
1105.303711	12688.629883
1104.201172	12742.585938
1103.098633	12719.403320
1101.996094	12818.679688
1100.893555	12593.715820
1099.791016	12604.576172
1098.687500	12524.786133
1097.583984	12762.216797
1096.480469	12535.192383
1095.376953	12829.129883
1094.272461	12568.225586
1093.167969	12696.779297
1092.063477	12614.803711
1090.958008	12643.733398
1089.853516	12878.505859
1088.748047	12776.185547
1087.642578	12836.714844
1086.536133	13080.331055
1085.430664	12955.428711
1084.324219	13307.375977
1083.217773	13433.248047
1082.110352	13482.268555
1081.003906	13549.331055
1079.896484	13810.528320
1078.789063	13599.848633
1077.680664	13876.715820
1076.573242	13702.209961
1075.464844	13663.125977
1074.356445	14079.620117
1073.247070	13857.831055
1072.138672	14030.636719
1071.029297	13651.188477
1069.919922	13503.993164
1068.809570	13343.344727
1067.700195	13358.445313
1066.589844	13351.019531
1065.479492	13312.078125
1064.368164	13297.911133
1063.257813	13013.708008
1062.146484	13026.608398
1061.035156	12913.538086
1059.922852	12793.770508
1058.811523	12653.817383
1057.699219	12673.524414
1056.586914	12198.797852
1055.473633	12598.318359
1054.361328	12638.238281
1053.248047	12538.894531
1052.134766	12601.261719
1051.021484	12607.478516
1049.907227	12456.581055
1048.792969	12536.874023
1047.678711	12412.977539
1046.564453	12502.213867
1045.449219	12387.346680
1044.333984	12884.585938
1043.218750	12538.811523
1042.103516	12601.045898
1040.987305	12578.114258
1039.871094	12604.470703
1038.754883	12550.192383
1037.638672	12495.936523
1036.521484	12529.005859
1035.404297	12669.485352
1034.287109	12472.034180
1033.169922	12751.158203
1032.051758	12694.675781
1030.933594	12606.913086
1029.815430	12541.541992
1028.697266	12690.767578
1027.578125	12828.751953
1026.458984	12714.222656
1025.339844	12735.992188
1024.220703	12782.315430
1023.100586	12842.012695
1021.980469	12901.682617
1020.860352	12999.262695
1019.740234	13038.789063
1018.619141	12868.616211
1017.498047	12812.254883
1016.376953	12978.883789
1015.255859	13078.562500
1014.133789	12870.637695
1013.011719	12767.529297
1011.889648	12717.929688
1010.767578	12955.661133
1009.644531	13035.188477
1008.521484	12967.750000
1007.398438	12967.111328
1006.274414	12846.308594
1005.151367	13079.293945
1004.027344	12936.275391
1002.902344	12851.136719
1001.778320	12919.440430
1000.653320	12829.894531
999.528320	12729.276367
998.403320	12526.499023
997.278320	12890.243164
996.152344	12934.028320
995.026367	12902.301758
993.900391	12899.445313
992.773438	12938.756836
991.646484	13113.400391
990.519531	13130.460938
989.392578	13129.770508
988.265625	13197.817383
987.137695	13407.712891
986.009766	13336.033203
984.881836	13344.156250
983.752930	13414.306641
982.624023	13234.138672
981.495117	13242.275391
980.366211	12938.242188
979.236328	12966.359375
978.106445	13169.287109
976.976563	12958.392578
975.846680	13015.239258
974.715820	12850.911133
973.585938	12779.516602
972.454102	12783.309570
971.323242	12731.848633
970.191406	12629.591797
969.060547	12761.535156
967.927734	12515.759766
966.795898	12808.855469
965.663086	12971.573242
964.530273	12507.413086
963.397461	13126.883789
962.264648	13112.932617
961.130859	13191.622070
959.997070	13451.091797
958.863281	13454.711914
957.729492	13334.898438
956.594727	13431.091797
955.459961	13287.099609
954.325195	13345.814453
953.189453	13217.318359
952.053711	12963.383789
950.917969	12887.855469
949.782227	12816.761719
948.646484	12767.700195
947.509766	12709.860352
946.373047	12451.917969
945.235352	12537.088867
944.098633	12556.273438
942.960938	12404.025391
941.823242	12713.266602
940.685547	12565.442383
939.546875	12650.487305
938.408203	12996.791016
937.269531	12715.086914
936.129883	12819.791016
934.991211	12799.373047
933.851563	13112.421875
932.711914	13034.917969
931.571289	13007.882813
930.431641	12932.626953
929.291016	13214.675781
928.149414	13220.486328
927.008789	13153.993164
925.867188	13190.477539
924.725586	13172.196289
923.583984	13055.399414
922.441406	12868.608398
921.299805	12699.407227
920.157227	12862.845703
919.013672	12665.283203
917.871094	12546.537109
916.727539	12266.045898
915.583984	12226.135742
914.439453	12181.871094
913.295898	12384.530273
912.151367	12292.188477
911.006836	12097.239258
909.861328	12125.095703
908.716797	12041.603516
907.571289	12124.021484
906.424805	12119.118164
905.279297	12085.856445
904.132813	12157.300781
902.986328	12134.946289
901.839844	12038.477539
900.692383	11926.792969
899.545898	12096.264648
898.398438	12110.975586
897.250000	12103.898438
896.102539	12138.198242
894.954102	11928.639648
893.805664	12161.038086
892.656250	12047.319336
891.507813	12101.177734
890.358398	11972.294922
889.208984	11886.961914
888.058594	12006.043945
886.908203	12018.558594
885.758789	12065.837891
884.607422	12052.258789
883.457031	11980.032227
882.305664	12098.954102
881.154297	11942.068359
880.002930	11911.158203
878.850586	12073.417969
877.698242	11792.960938
876.545898	11807.657227
875.393555	11995.853516
874.240234	11815.344727
873.086914	11812.680664
871.933594	11840.360352
870.780273	11608.000000
869.625977	11737.531250
868.471680	11819.353516
867.317383	11552.505859
866.162109	11651.649414
865.007813	11752.913086
863.852539	11646.389648
862.696289	11747.606445
861.541016	11788.212891
860.384766	11670.938477
859.228516	11817.479492
858.072266	11654.858398
856.915039	11736.503906
855.757813	11673.356445
854.600586	11733.359375
853.442383	11586.015625
852.285156	11650.327148
851.126953	11645.534180
849.968750	11629.951172
848.809570	11627.320313
847.650391	11741.173828
846.491211	11604.805664
845.332031	11718.610352
844.171875	11621.109375
843.012695	11536.582031
841.851563	11408.998047
840.691406	11542.127930
839.530273	11724.732422
838.369141	11698.390625
837.208008	11542.896484
836.046875	11445.583008
834.884766	11587.155273
833.722656	11472.663086
832.560547	11504.474609
831.397461	11562.074219
830.234375	11445.512695
829.071289	11371.989258
827.908203	11693.881836
826.744141	11504.323242
825.580078	11454.459961
824.416016	11688.070313
823.251953	11522.254883
822.086914	11626.958008
820.921875	11652.214844
819.756836	11587.351563
818.590820	11636.198242
817.425781	11616.399414
816.259766	11538.721680
815.092773	11735.441406
813.926758	11554.908203
812.759766	11631.553711
811.592773	11391.147461
810.424805	11401.407227
809.257813	11565.814453
808.089844	11539.637695
806.920898	11581.954102
805.752930	11705.553711
804.583984	11621.605469
803.415039	11627.515625
802.246094	11453.821289
801.076172	11566.645508
799.906250	11536.229492
798.736328	11589.155273
797.566406	11565.154297
796.395508	11635.133789
795.224609	11687.998047
794.053711	11476.134766
792.881836	11742.430664
791.710938	11835.772461
790.538086	12229.857422
789.366211	12222.804688
788.194336	12352.218750
787.021484	12479.440430
785.848633	12459.544922
784.674805	12399.170898
783.500977	12334.563477
782.327148	12289.153320
781.153320	12286.349609
779.979492	12166.458008
778.804688	12080.674805
777.629883	12094.940430
776.454102	12049.630859
775.279297	11919.264648
774.103516	11997.347656
772.927734	11924.451172
771.750977	12062.008789
770.575195	12010.378906
769.398438	12147.851563
768.220703	12253.400391
767.043945	12252.723633
765.866211	12455.857422
764.688477	12363.863281
763.510742	12518.069336
762.332031	12837.687500
761.153320	13133.826172
759.974609	13601.598633
758.794922	13922.866211
757.616211	14212.192383
756.436523	14865.878906
755.255859	15856.133789
754.076172	17250.507813
752.895508	18455.767578
751.714844	20136.847656
750.533203	21776.937500
749.352539	23877.617188
748.170898	25310.869141
746.988281	26889.414063
745.806641	28135.212891
744.624023	28824.376953
743.441406	29105.251953
742.258789	29675.525391
741.075195	29932.832031
739.891602	31210.294922
738.708008	32394.244141
737.523438	33919.699219
736.339844	35136.253906
735.155273	35748.664063
733.969727	35907.152344
732.785156	34580.500000
731.599609	33260.781250
730.414063	30796.748047
729.227539	28338.060547
728.041992	25231.376953
726.855469	23126.966797
725.667969	20448.427734
724.481445	18784.140625
723.293945	17228.003906
722.106445	16346.214844
720.918945	15302.774414
719.730469	14971.012695
718.541992	14252.328125
717.353516	13868.378906
716.164063	13400.497070
714.975586	12972.770508
713.786133	12856.295898
712.595703	12382.662109
711.406250	12306.289063
710.215820	12309.761719
709.025391	12078.053711
707.833984	12041.687500
706.642578	12181.639648
705.451172	12147.363281
704.259766	12056.458984
703.068359	12116.607422
701.875977	12216.569336
700.683594	12115.226563
699.490234	12204.661133
698.297852	12633.516602
697.104492	13114.548828
695.910156	13182.744141
694.716797	13724.152344
693.522461	13825.669922
692.328125	14004.582031
691.132813	13972.061523
689.938477	14056.711914
688.743164	13676.987305
687.547852	13661.290039
686.351563	13336.185547
685.155273	13226.515625
683.958984	13047.935547
682.762695	12938.379883
681.565430	12776.657227
680.368164	12585.771484
679.170898	12453.430664
677.973633	12283.579102
676.775391	12385.086914
675.577148	12386.404297
674.378906	12373.119141
673.179688	12193.011719
671.980469	12154.757813
670.781250	12272.848633
669.581055	11976.188477
668.381836	12179.684570
667.181641	11862.350586
665.980469	12049.118164
664.780273	12071.322266
663.579102	12041.476563
662.377930	12165.640625
661.175781	11909.006836
659.973633	12022.742188
658.771484	12101.070313
657.569336	12266.683594
656.367188	12455.084961
655.164063	12470.912109
653.960938	12719.429688
652.756836	12899.284180
651.552734	13130.972656
650.348633	13379.162109
649.144531	13419.662109
647.939453	13424.863281
646.735352	13593.968750
645.529297	13812.779297
644.324219	13730.782227
643.118164	13762.856445
641.912109	13796.987305
640.706055	14067.353516
639.499023	13492.255859
638.292969	13366.922852
637.084961	13187.802734
635.877930	13104.005859
634.669922	12802.897461
633.461914	12766.824219
632.253906	12708.008789
631.044922	12845.731445
629.836914	12621.476563
628.626953	12500.704102
627.417969	12739.666016
626.208008	12414.323242
624.998047	12667.655273
623.788086	12530.455078
622.577148	12490.382813
621.366211	12311.990234
620.155273	12387.583008
618.944336	12134.999023
617.732422	12177.583984
616.520508	12053.058594
615.308594	12155.448242
614.095703	11997.995117
612.882813	11871.534180
611.669922	11656.511719
610.457031	11713.566406
609.243164	11383.321289
608.029297	11485.718750
606.815430	11511.884766
605.600586	11498.926758
604.385742	11463.334961
603.170898	11382.492188
601.955078	11437.454102
600.740234	11449.201172
599.524414	11909.181641
598.307617	11709.078125
597.091797	11410.417969
595.875000	11506.401367
594.658203	11596.175781
593.440430	11425.080078
592.222656	11496.351563
591.004883	11579.905273
589.787109	11408.930664
588.568359	11478.101563
587.349609	11243.634766
586.130859	11204.112305
584.912109	11219.968750
583.692383	11186.619141
582.472656	11292.648438
581.251953	11421.166992
580.032227	11338.625977
578.811523	11573.572266
577.589844	11562.698242
576.369141	11783.151367
575.147461	11768.139648
573.925781	11916.826172
572.703125	12196.367188
571.481445	12181.267578
570.258789	12356.333984
569.035156	12686.682617
567.812500	12881.988281
566.588867	12928.039063
565.365234	13086.424805
564.140625	13314.176758
562.916992	13304.961914
561.692383	13207.970703
560.466797	13137.554688
559.242188	13042.686523
558.016602	12870.339844
556.791016	12457.410156
555.564453	12713.478516
554.337891	12441.436523
553.111328	12200.091797
551.884766	11979.234375
550.657227	11795.147461
549.429688	11741.492188
548.202148	11641.029297
546.974609	11681.078125
545.746094	11727.213867
544.517578	11763.153320
543.288086	11493.926758
542.058594	11623.458984
540.829102	11634.995117
539.599609	11502.188477
538.370117	11631.626953
537.139648	11539.520508
535.909180	11490.117188
534.677734	11550.412109
533.446289	11553.822266
532.214844	11677.004883
530.983398	11335.349609
529.750977	11454.465820
528.519531	11301.685547
527.286133	11368.020508
526.053711	11383.630859
524.820313	11354.633789
523.586914	11459.416992
522.353516	11479.044922
521.119141	11344.700195
519.884766	11340.041016
518.650391	11313.109375
517.415039	11215.333984
516.179688	11192.491211
514.944336	11264.760742
513.708984	11276.306641
