#Wave		#Intensity
2109.224609	5436.591309
2107.712891	5456.438477
2106.201172	5489.984375
2104.687500	5402.828125
2103.175781	5459.511719
2101.662109	5441.806641
2100.150391	5381.152344
2098.636719	5363.472168
2097.123047	5434.978516
2095.607422	5387.574219
2094.093750	5389.712891
2092.578125	5393.500977
2091.064453	5461.639648
2089.548828	5285.594727
2088.033203	5352.078125
2086.517578	5403.691406
2085.000000	5415.715820
2083.484375	5348.618652
2081.966797	5391.959961
2080.449219	5295.240723
2078.931641	5463.762695
2077.414063	5317.664063
2075.894531	5374.146973
2074.376953	5305.499023
2072.857422	5292.837402
2071.337891	5387.134277
2069.818359	5344.849121
2068.298828	5374.950195
2066.777344	5169.893555
2065.257813	5361.132813
2063.736328	5281.085449
2062.214844	5383.479492
2060.693359	5268.959961
2059.171875	5267.829102
2057.648438	5299.543457
2056.126953	5323.034668
2054.603516	5195.494141
2053.080078	5312.545898
2051.556641	5309.765625
2050.033203	5234.805176
2048.507813	5154.956543
2046.984375	5153.852051
2045.458984	5226.522461
2043.933594	5245.072266
2042.408203	5242.310059
2040.882813	5224.803711
2039.355469	5226.961426
2037.830078	5419.089355
2036.302734	5201.801758
2034.775391	5256.346191
2033.248047	5315.777344
2031.718750	5262.279297
2030.191406	5221.892090
2028.662109	5255.122559
2027.134766	5267.081543
2025.605469	5362.414063
2024.076172	5255.023438
2022.544922	5340.512695
2021.015625	5256.046387
2019.484375	5243.489746
2017.955078	5307.695313
2016.423828	5301.664063
2014.892578	5254.824219
2013.359375	5154.145508
2011.828125	5270.531250
2010.294922	5266.144043
2008.761719	5211.196289
2007.230469	5255.744629
2005.695313	5223.647461
2004.162109	5162.223633
2002.628906	5131.789551
2001.093750	5210.531738
1999.558594	5088.878418
1998.023438	5232.741211
1996.488281	5234.882813
1994.953125	5111.673828
1993.417969	5312.404785
1991.880859	5272.220215
1990.343750	5178.365723
1988.806641	5240.698242
1987.269531	5194.049805
1985.732422	5121.407227
1984.193359	5139.823730
1982.656250	5226.488281
1981.117188	5155.510254
1979.578125	5204.771973
1978.039063	5114.338867
1976.500000	5124.618164
1974.958984	5113.788086
1973.417969	5205.216797
1971.878906	5075.914551
1970.337891	5238.697266
1968.796875	5156.481934
1967.253906	5179.711914
1965.712891	5063.495605
1964.169922	5193.722168
1962.626953	5186.136719
1961.083984	5123.462891
1959.541016	5096.455566
1957.998047	5084.036133
1956.455078	5078.099121
1954.910156	5170.920410
1953.365234	5245.897949
1951.820313	5231.838379
1950.275391	5222.639160
1948.730469	5150.357910
1947.183594	5099.131348
1945.638672	5077.030273
1944.091797	5032.307129
1942.544922	5231.648926
1940.998047	5144.899414
1939.449219	5193.889648
1937.902344	5244.474121
1936.353516	5307.956055
1934.804688	5179.286133
1933.255859	5195.944336
1931.707031	5096.401367
1930.158203	5106.615723
1928.607422	5091.015625
1927.058594	5110.903320
1925.507813	5096.921387
1923.957031	5078.108887
1922.406250	5168.903320
1920.853516	5211.317383
1919.302734	5044.272949
1917.750000	5118.909668
1916.197266	5084.007813
1914.644531	5168.264160
1913.091797	5109.220703
1911.539063	5090.436035
1909.984375	5131.193848
1908.431641	5126.890625
1906.876953	5199.789551
1905.322266	5015.376465
1903.767578	5122.029297
1902.210938	5056.652344
1900.656250	5053.975586
1899.099609	5202.324707
1897.542969	5178.736328
1895.986328	5140.703613
1894.429688	5157.278320
1892.873047	5040.606934
1891.314453	5102.134277
1889.755859	4982.313965
1888.199219	5056.661621
1886.640625	5012.286133
1885.080078	5097.820313
1883.521484	5032.612793
1881.960938	5015.519531
1880.402344	5049.716309
1878.841797	5010.195313
1877.281250	5060.396973
1875.720703	5211.475586
1874.158203	4989.405762
1872.597656	5061.991699
1871.035156	5011.305176
1869.472656	5058.252441
1867.910156	5069.982910
1866.347656	5144.089355
1864.783203	5058.245117
1863.220703	5025.199707
1861.656250	5062.502441
1860.091797	5058.236328
1858.527344	5162.625488
1856.962891	5054.501953
1855.396484	5053.434082
1853.832031	5109.852539
1852.265625	5083.229492
1850.699219	5086.944336
1849.132813	5124.169434
1847.566406	5051.290527
1845.998047	5101.268066
1844.431641	4991.744141
1842.863281	5180.431641
1841.294922	5161.802246
1839.726563	5004.520020
1838.156250	5103.851074
1836.587891	5102.772949
1835.017578	5133.551270
1833.449219	5110.172852
1831.878906	5053.369629
1830.306641	5095.280762
1828.736328	5156.270996
1827.166016	5150.408691
1825.593750	5241.585938
1824.021484	5103.701660
1822.449219	5123.295410
1820.876953	5055.443359
1819.304688	5186.298340
1817.730469	5134.352051
1816.158203	5168.220703
1814.583984	5114.711426
1813.009766	5065.988770
1811.435547	5120.490234
1809.859375	5106.709961
1808.285156	5170.701660
1806.708984	5064.884766
1805.132813	5116.166504
1803.556641	5137.291016
1801.980469	5136.206543
1800.404297	5170.000488
1798.826172	5146.717773
1797.248047	5215.359375
1795.671875	5193.660645
1794.093750	5184.643555
1792.513672	5169.294922
1790.935547	5226.789063
1789.355469	5201.938965
1787.777344	5115.373047
1786.197266	5141.193359
1784.617188	5079.989258
1783.035156	5115.295898
1781.455078	5183.796387
1779.873047	5206.417480
1778.292969	5211.640625
1776.710938	5117.296875
1775.128906	5264.740723
1773.544922	5244.671875
1771.962891	5208.817383
1770.378906	5261.404785
1768.794922	5138.731934
1767.212891	5270.230469
1765.626953	5194.948242
1764.042969	5268.003418
1762.458984	5323.676270
1760.873047	5322.551270
1759.287109	5261.511230
1757.701172	5247.788086
1756.115234	5205.701660
1754.529297	5284.962891
1752.941406	5271.242676
1751.355469	5188.226074
1749.767578	5343.026367
1748.179688	5304.111816
1746.591797	5299.842285
1745.001953	5361.670898
1743.414063	5275.574219
1741.824219	5411.314453
1740.234375	5273.343262
1738.644531	5423.177734
1737.054688	5445.611816
1735.462891	5444.459961
1733.873047	5422.880371
1732.281250	5384.027832
1730.689453	5524.254883
1729.097656	5432.003418
1727.505859	5481.096191
1725.912109	5624.352051
1724.320313	5425.417480
1722.726563	5628.248535
1721.132813	5518.814453
1719.539063	5594.498535
1717.945313	5574.497559
1716.349609	5656.408203
1714.755859	5667.750000
1713.160156	5649.312500
1711.564453	5738.987793
1709.968750	5764.401855
1708.371094	5738.124023
1706.775391	5668.016113
1705.177734	5828.053711
1703.580078	5743.870117
1701.982422	5874.092773
1700.384766	5794.627441
1698.787109	5748.041504
1697.187500	5821.884277
1695.587891	5737.789063
1693.990234	5786.592285
1692.390625	5858.816406
1690.789063	5929.446777
1689.189453	5964.118652
1687.587891	5983.157227
1685.988281	5910.062988
1684.386719	5980.621094
1682.785156	6016.812012
1681.181641	6116.965332
1679.580078	6100.066895
1677.976563	6095.653809
1676.373047	6099.039063
1674.769531	6188.174805
1673.166016	6288.184082
1671.562500	6402.176270
1669.957031	6508.329102
1668.353516	6496.043457
1666.748047	6662.872070
1665.142578	6698.829590
1663.537109	6881.111328
1661.929688	6772.253418
1660.324219	6931.099121
1658.716797	7027.644531
1657.109375	7058.817383
1655.501953	7206.613770
1653.894531	7366.785156
1652.285156	7416.519043
1650.677734	7547.047852
1649.068359	7601.382813
1647.458984	7683.656738
1645.849609	7854.426758
1644.240234	7950.586914
1642.628906	8077.755859
1641.019531	8166.065918
1639.408203	8325.722656
1637.796875	8201.381836
1636.185547	8441.625000
1634.572266	8545.288086
1632.960938	8707.828125
1631.347656	8905.952148
1629.734375	9186.135742
1628.121094	9239.964844
1626.507813	9268.982422
1624.894531	9423.447266
1623.279297	9734.250977
1621.664063	9982.992188
1620.048828	10163.518555
1618.433594	10413.608398
1616.818359	10593.964844
1615.203125	11021.750000
1613.585938	11324.079102
1611.968750	11788.634766
1610.351563	11948.445313
1608.734375	12250.380859
1607.117188	12482.649414
1605.498047	12568.049805
1603.878906	13034.930664
1602.261719	13390.423828
1600.640625	13846.120117
1599.021484	14188.937500
1597.402344	14545.497070
1595.781250	14809.326172
1594.162109	14658.073242
1592.541016	14434.396484
1590.919922	14334.170898
1589.296875	14073.657227
1587.675781	13905.731445
1586.052734	13637.712891
1584.429688	13513.088867
1582.806641	13277.613281
1581.183594	12989.876953
1579.560547	12893.182617
1577.935547	12771.898438
1576.312500	12793.792969
1574.687500	12667.963867
1573.062500	12805.245117
1571.435547	12844.034180
1569.810547	13007.358398
1568.183594	13144.476563
1566.558594	13401.423828
1564.931641	13850.349609
1563.304688	14383.582031
1561.675781	15397.369141
1560.048828	16105.112305
1558.419922	16973.767578
1556.791016	17895.777344
1555.162109	18901.800781
1553.533203	19462.414063
1551.904297	19445.972656
1550.273438	19357.451172
1548.642578	19124.822266
1547.011719	18456.894531
1545.380859	17798.449219
1543.750000	17092.777344
1542.119141	16238.793945
1540.486328	15434.192383
1538.853516	14894.874023
1537.220703	14233.296875
1535.587891	13953.169922
1533.955078	13634.900391
1532.320313	13119.378906
1530.685547	12832.018555
1529.052734	12610.547852
1527.416016	12095.574219
1525.781250	11802.500977
1524.146484	11692.970703
1522.509766	11306.889648
1520.873047	11171.538086
1519.236328	10897.240234
1517.599609	10940.712891
1515.962891	10797.890625
1514.324219	10655.128906
1512.687500	10512.427734
1511.048828	10594.088867
1509.410156	10581.130859
1507.771484	10488.866211
1506.130859	10491.183594
1504.492188	10185.539063
1502.851563	10221.451172
1501.210938	10200.963867
1499.570313	10256.662109
1497.927734	10330.615234
1496.287109	10336.003906
1494.644531	10464.718750
1493.001953	10509.653320
1491.359375	10559.132813
1489.716797	10581.201172
1488.074219	10411.580078
1486.429688	10194.880859
1484.785156	10125.774414
1483.140625	9988.284180
1481.496094	9797.654297
1479.851563	9754.508789
1478.207031	9735.690430
1476.560547	9763.967773
1474.914063	9704.150391
1473.267578	9577.551758
1471.621094	9583.073242
1469.972656	9541.542969
1468.326172	9510.651367
1466.677734	9461.568359
1465.029297	9435.254883
1463.380859	9533.293945
1461.732422	9672.221680
1460.082031	9551.905273
1458.431641	9784.719727
1456.783203	9823.507813
1455.132813	9838.042969
1453.480469	9779.880859
1451.830078	9798.959961
1450.177734	9837.708008
1448.527344	9691.803711
1446.875000	9598.919922
1445.220703	9537.842773
1443.568359	9384.533203
1441.916016	9300.845703
1440.261719	9070.553711
1438.607422	9086.722656
1436.953125	9220.750977
1435.298828	9137.167969
1433.642578	9077.788086
1431.988281	9044.105469
1430.332031	8829.260742
1428.675781	8893.759766
1427.019531	9134.798828
1425.361328	8846.140625
1423.705078	8844.218750
1422.046875	8916.196289
1420.388672	8903.703125
1418.730469	8731.419922
1417.072266	8664.712891
1415.412109	8628.170898
1413.753906	8648.890625
1412.093750	8421.081055
1410.433594	8357.507813
1408.773438	8393.327148
1407.111328	8396.014648
1405.451172	8615.402344
1403.789063	8574.407227
1402.126953	8828.256836
1400.464844	8835.355469
1398.802734	8947.701172
1397.138672	8857.059570
1395.474609	8826.572266
1393.812500	8683.405273
1392.146484	8795.681641
1390.482422	8529.423828
1388.818359	8356.379883
1387.152344	8554.224609
1385.486328	8498.323242
1383.820313	8523.477539
1382.154297	8548.621094
1380.488281	8750.748047
1378.820313	8751.834961
1377.154297	8682.453125
1375.486328	8800.472656
1373.818359	8879.474609
1372.148438	8974.923828
1370.480469	8730.286133
1368.810547	8920.076172
1367.140625	8805.823242
1365.470703	8717.069336
1363.800781	8677.744141
1362.130859	8657.886719
1360.458984	8573.708984
1358.787109	8721.400391
1357.115234	8734.442383
1355.443359	8704.122070
1353.771484	8739.582031
1352.097656	8884.114258
1350.423828	8988.244141
1348.751953	8957.891602
1347.076172	9230.710938
1345.402344	9401.881836
1343.728516	9337.122070
1342.052734	9649.971680
1340.376953	10037.288086
1338.701172	10187.242188
1337.025391	10384.856445
1335.347656	10586.855469
1333.671875	10608.379883
1331.994141	10662.684570
1330.316406	10658.849609
1328.638672	10698.218750
1326.960938	10859.706055
1325.281250	10979.425781
1323.601563	10747.731445
1321.921875	10714.107422
1320.242188	10714.723633
1318.562500	10704.924805
1316.880859	10495.803711
1315.201172	10262.978516
1313.519531	10106.083984
1311.837891	9932.906250
1310.154297	9817.765625
1308.472656	9675.928711
1306.789063	9819.375977
1305.105469	9521.653320
1303.421875	9480.945313
1301.738281	9566.440430
1300.054688	9522.769531
1298.369141	9364.856445
1296.683594	9536.365234
1294.998047	9581.721680
1293.312500	9638.919922
1291.626953	9427.744141
1289.939453	9446.411133
1288.253906	9230.923828
1286.566406	9021.458008
1284.878906	8772.088867
1283.189453	8549.487305
1281.501953	8146.347168
1279.812500	8178.589844
1278.123047	8120.540039
1276.433594	7992.972168
1274.744141	8020.787109
1273.052734	7927.312500
1271.363281	7906.332520
1269.671875	8059.803223
1267.980469	7987.071777
1266.289063	7815.368164
1264.595703	7927.388672
1262.904297	7791.221191
1261.210938	7752.574707
1259.517578	7712.467773
1257.824219	7777.175781
1256.128906	7799.059082
1254.435547	7784.047852
1252.740234	7841.319336
1251.044922	7897.089844
1249.349609	7833.409180
1247.652344	7645.935547
1245.957031	7650.129395
1244.259766	7478.985840
1242.562500	7524.459473
1240.865234	7349.000488
1239.167969	7248.711914
1237.468750	7120.497559
1235.769531	7185.140137
1234.072266	7043.752930
1232.371094	7080.431641
1230.671875	7052.378906
1228.972656	7100.801270
1227.271484	7027.181641
1225.570313	7075.586914
1223.869141	7044.618652
1222.167969	6960.774414
1220.464844	6946.000977
1218.763672	6922.422363
1217.060547	6913.535156
1215.357422	6961.896484
1213.654297	6988.223145
1211.949219	6933.843262
1210.246094	7005.634766
1208.541016	6916.077148
1206.835938	6876.409668
1205.130859	6847.019531
1203.423828	6857.211426
1201.718750	6838.094238
1200.011719	6833.633301
1198.304688	6814.528320
1196.597656	6984.314941
1194.888672	7004.708496
1193.181641	7123.150391
1191.472656	7190.325684
1189.763672	7339.392578
1188.054688	7488.392090
1186.343750	7630.012695
1184.634766	7717.477539
1182.923828	7692.359863
1181.212891	7740.316406
1179.501953	7669.914063
1177.791016	7637.519043
1176.078125	7586.153320
1174.365234	7442.833496
1172.652344	7172.589844
1170.939453	7071.745605
1169.226563	7061.401367
1167.511719	6997.091797
1165.798828	7050.933594
1164.083984	7037.683105
1162.369141	7065.252441
1160.652344	6896.068848
1158.937500	6858.091309
1157.220703	6767.689941
1155.503906	6623.443359
1153.787109	6675.823730
1152.070313	6514.193359
1150.351563	6464.697754
1148.632813	6391.943848
1146.916016	6451.599609
1145.195313	6397.786621
1143.476563	6364.354004
1141.757813	6429.788086
1140.037109	6168.180176
1138.316406	6187.129883
1136.595703	6272.896484
1134.875000	6137.857910
1133.152344	6117.594238
1131.429688	5968.133301
1129.708984	5985.652344
1127.984375	5834.836426
1126.261719	5877.039551
1124.539063	5835.097656
1122.814453	5751.121094
1121.089844	5677.330078
1119.365234	5491.964844
1117.640625	5528.398438
1115.914063	5489.477539
1114.187500	5511.409180
1112.462891	5540.570801
1110.734375	5312.009277
1109.007813	5377.388672
1107.281250	5257.502930
1105.552734	5257.757324
1103.824219	5117.700684
1102.095703	5204.755371
1100.367188	5083.569336
1098.636719	5138.790039
1096.908203	5059.583496
1095.177734	5045.430176
1093.447266	5087.619629
1091.714844	5025.807129
1089.984375	5050.654297
1088.251953	5075.489746
1086.519531	5168.144531
1084.787109	5106.367676
1083.054688	5196.086914
1081.320313	5124.235352
1079.585938	5117.301270
1077.851563	5172.357422
1076.117188	5182.709473
1074.382813	5230.520020
1072.648438	5138.571289
1070.912109	5027.940918
1069.175781	4905.840820
1067.439453	4992.537598
1065.701172	4962.613770
1063.964844	4867.950195
1062.226563	4826.558594
1060.488281	4809.635742
1058.750000	4795.596191
1057.011719	4839.068359
1055.271484	4826.464844
1053.531250	4783.689941
1051.791016	4802.709961
1050.050781	4739.851074
1048.310547	4655.479980
1046.568359	4701.792480
1044.826172	4750.954102
1043.083984	4857.492676
1041.341797	4793.255371
1039.599609	4856.704590
1037.855469	4954.540039
1036.113281	5079.570801
1034.369141	5162.976074
1032.623047	5151.762207
1030.878906	4985.820801
1029.132813	5100.701172
1027.386719	4907.637207
1025.640625	4879.309570
1023.894531	4779.424316
1022.148438	4689.602051
1020.400391	4752.909668
1018.652344	4809.035156
1016.904297	4759.309082
1015.156250	4813.976563
1013.406250	4797.147461
1011.658203	4733.165527
1009.908203	4760.653809
1008.158203	4615.287598
1006.408203	4712.766602
1004.656250	4710.255371
1002.904297	4677.768555
1001.152344	4700.954102
999.400391	4855.393555
997.648438	4885.659180
995.896484	4900.222168
994.142578	4921.907227
992.388672	4887.988281
990.634766	4903.964355
988.878906	4949.854492
987.125000	4923.072754
985.369141	4977.481445
983.613281	4962.095703
981.857422	4936.751953
980.099609	4969.770020
978.343750	5012.732910
976.585938	4939.027344
974.828125	4861.088867
973.070313	4828.685547
971.310547	4826.149902
969.552734	4830.720215
967.792969	4809.712402
966.033203	4757.460938
964.273438	4777.665527
962.511719	4866.015625
960.750000	4910.317383
958.990234	4811.254395
957.226563	4817.236328
955.464844	4817.541016
953.703125	4766.787109
951.939453	4697.623535
950.175781	4693.701172
948.412109	4621.750488
946.648438	4708.531738
944.882813	4572.861816
943.117188	4595.879883
941.351563	4535.344727
939.585938	4503.149414
937.820313	4473.799805
936.052734	4525.117188
934.285156	4436.359375
932.517578	4409.872559
930.750000	4505.001465
928.982422	4557.675781
927.212891	4522.698242
925.443359	4564.039063
923.673828	4489.519531
921.904297	4512.487305
920.132813	4486.022949
918.361328	4507.567871
916.591797	4509.343262
914.818359	4561.915527
913.046875	4631.391113
911.275391	4621.852051
909.501953	4782.934570
907.728516	4842.440918
905.955078	4684.870117
904.179688	4662.644043
902.406250	4717.908691
900.630859	4642.164063
898.855469	4576.311035
897.080078	4524.565918
895.302734	4479.881348
893.525391	4423.960449
891.750000	4359.624512
889.970703	4383.924805
888.193359	4281.661621
886.416016	4203.344727
884.636719	4224.852051
882.857422	4207.004883
881.078125	4194.785156
879.296875	4140.435547
877.517578	4122.619629
875.736328	4179.214355
873.955078	4190.870605
872.173828	4076.234375
870.390625	3970.068604
868.609375	4036.462402
866.826172	4015.888672
865.042969	3974.296143
863.259766	4004.201172
861.474609	3976.642090
859.689453	3947.694580
857.904297	3925.762939
856.119141	3964.051270
854.333984	3947.725098
852.546875	3937.004395
850.761719	3927.687500
848.974609	3950.549805
847.185547	3981.792480
845.398438	3943.106934
843.609375	3996.703125
841.822266	4015.333496
840.031250	3955.706787
838.242188	3967.352539
836.453125	4087.929199
834.662109	4042.289307
832.871094	4037.153809
831.080078	3970.611572
829.289063	4068.748047
827.496094	4071.978516
825.703125	4054.287109
823.910156	4064.490479
822.117188	4049.596436
820.324219	3962.237549
818.529297	3973.847412
816.734375	3981.272217
814.939453	3969.195557
813.144531	3994.718262
811.347656	3952.018311
809.550781	3962.223389
807.755859	3996.076904
805.957031	4011.830078
804.160156	3976.118408
802.361328	3958.498535
800.564453	3933.936035
798.765625	3874.640869
796.964844	3883.455322
795.166016	3992.280518
793.365234	3944.122559
791.564453	3865.440918
789.763672	3832.604004
787.962891	3898.315674
786.160156	3858.548340
784.359375	3870.123779
782.556641	3906.656006
780.751953	3841.957031
778.949219	3763.426514
777.144531	3847.075195
775.339844	3812.916260
773.535156	3843.876221
771.730469	3765.417969
769.925781	3879.445557
768.119141	3837.004395
766.312500	3813.957031
764.505859	3886.385010
762.697266	3908.982666
760.890625	3909.442871
759.082031	4039.863770
757.273438	3928.330566
755.464844	4113.961426
753.654297	4258.056152
751.845703	4315.063477
750.035156	4424.519043
748.224609	4616.758789
746.412109	4844.794434
744.601563	5064.442383
742.789063	5354.347168
740.976563	5639.976563
739.164063	6073.020996
737.349609	6811.920898
735.537109	7531.173828
733.722656	8335.522461
731.908203	8763.383789
730.091797	8667.650391
728.277344	7939.908203
726.460938	6917.896973
724.644531	5941.789063
722.828125	5420.237305
721.009766	4980.099609
719.193359	4621.317871
717.375000	4434.589355
715.556641	4293.314941
713.736328	4132.865234
711.917969	4203.338379
710.097656	4129.532715
708.277344	4134.047363
706.457031	4086.381592
704.636719	4035.992188
702.814453	4072.091553
700.992188	4024.472900
699.169922	3891.824463
697.347656	3855.242432
695.523438	3996.928223
693.699219	3971.304688
691.875000	4164.974121
690.050781	4132.471191
688.226563	4120.531250
686.400391	4077.097412
684.574219	4067.914063
682.748047	4077.898926
680.921875	4038.610596
679.095703	4033.546631
677.267578	3994.286865
675.439453	3989.234863
673.611328	4022.468262
671.781250	4006.475830
669.953125	3959.058838
668.123047	4092.013184
666.292969	4091.040283
664.460938	4058.657959
662.630859	4145.072266
660.798828	4119.516602
658.966797	4149.923828
657.134766	4223.975098
655.302734	4190.233887
653.468750	4226.056152
651.634766	4308.215332
649.800781	4248.579102
647.966797	4255.744141
646.130859	4261.542969
644.294922	4280.958984
642.458984	4339.855957
640.623047	4297.979980
638.787109	4329.622559
636.949219	4225.173340
635.111328	4127.575195
633.273438	4084.428467
631.435547	4090.254150
629.595703	4207.553223
627.757813	4057.044434
625.917969	4077.818604
624.076172	4046.959717
622.236328	4082.665527
620.394531	3975.780029
618.552734	3949.039063
616.710938	3946.739990
614.869141	3922.731934
613.025391	3821.411133
611.183594	3806.937256
609.339844	3785.690674
607.494141	3798.343262
605.650391	3752.713379
603.804688	3757.237549
601.958984	3760.404785
600.113281	3672.832764
598.267578	3787.043213
596.419922	3561.434326
594.572266	3639.076660
592.724609	3617.912842
590.876953	3696.856689
589.027344	3709.497559
587.179688	3586.929199
585.330078	3623.920166
583.480469	3570.350586
581.628906	3560.040283
579.779297	3494.354492
577.927734	3540.784180
576.076172	3587.191406
574.222656	3597.132324
572.371094	3739.313965
570.517578	3728.976318
568.664063	3831.942871
566.810547	3778.436279
564.955078	3711.473389
563.101563	3640.498779
561.246094	3670.621094
559.390625	3578.134766
557.533203	3532.832520
555.677734	3575.077148
553.820313	3479.986572
551.962891	3623.165771
550.105469	3441.991455
548.246094	3528.609863
546.386719	3483.383057
544.527344	3553.814209
542.667969	3472.306641
540.808594	3499.699219
538.947266	3677.567139
537.085938	3716.987061
535.224609	3709.382568
533.363281	3591.681152
531.500000	3453.900635
529.638672	3432.943359
527.775391	3483.107178
525.910156	3537.270752
524.046875	3645.051514
522.181641	4122.829102
520.316406	4641.931641
518.451172	4467.945313
516.585938	4059.578125
514.718750	3797.408691
512.851563	3732.220215
510.984375	3588.071289
509.117188	3539.025635
507.250000	3500.708984
505.380859	3507.897705
503.511719	3496.357178
501.642578	3479.473145
499.771484	3461.260010
497.902344	3384.245117
496.031250	3363.390625
494.160156	3424.038574
492.287109	3268.285400
490.416016	3319.579590
488.542969	3306.769287
486.669922	3340.678467
484.796875	3285.169922
482.921875	3301.725098
481.046875	3294.265625
479.171875	3281.475830
477.296875	3376.670654
475.421875	3602.429443
473.544922	3484.312256
471.667969	3560.739746
469.791016	3663.766602
467.914063	3634.927734
466.035156	3567.498779
464.156250	3485.462891
462.277344	3456.686523
460.398438	3300.224854
458.519531	3331.351074
456.638672	3321.245850
454.757813	3307.157471
452.876953	3271.812744
450.994141	3259.071289
449.113281	3219.769775
447.230469	3250.869385
445.347656	3268.677246
443.462891	3290.458496
441.580078	3268.437744
439.695313	3207.952881
437.810547	3195.246582
435.925781	3230.284424
434.039063	3212.275635
432.152344	3147.885254
430.267578	3176.283203
428.378906	3266.932373
426.492188	3193.303467
424.603516	3273.311523
422.714844	3242.078613
420.826172	3267.771973
418.937500	3180.980713
417.046875	3272.820313
415.158203	3250.874756
413.265625	3234.228760
411.375000	3271.789795
409.484375	3292.151611
407.591797	3262.293945
405.699219	3187.536865
403.806641	3198.658936
401.912109	3216.377441
400.019531	3265.768066
