#Wave		#Intensity
2109.007813	11193.726563
2107.496094	11205.303711
2105.984375	11282.251953
2104.470703	11357.512695
2102.958984	11171.591797
2101.445313	11108.035156
2099.933594	11150.243164
2098.419922	11056.987305
2096.906250	10988.542969
2095.390625	11065.421875
2093.876953	10970.594727
2092.361328	10941.821289
2090.845703	10952.661133
2089.332031	10951.949219
2087.814453	10999.066406
2086.298828	10802.122070
2084.783203	10679.448242
2083.265625	10721.649414
2081.748047	10813.268555
2080.230469	10853.774414
2078.712891	10615.895508
2077.195313	10575.734375
2075.677734	10843.474609
2074.158203	10707.808594
2072.638672	10721.962891
2071.119141	10693.331055
2069.599609	10720.642578
2068.080078	10520.977539
2066.560547	10507.207031
2065.039063	10712.088867
2063.517578	10527.347656
2061.996094	10548.091797
2060.474609	10480.111328
2058.953125	10395.733398
2057.429688	10546.227539
2055.908203	10522.621094
2054.384766	10343.082031
2052.861328	10544.366211
2051.337891	10579.842773
2049.814453	10413.530273
2048.289063	10296.492188
2046.765625	10510.731445
2045.240234	10477.331055
2043.714844	10578.346680
2042.189453	10444.986328
2040.664063	10416.536133
2039.136719	10533.878906
2037.609375	10374.412109
2036.083984	10560.479492
2034.556641	10389.616211
2033.029297	10524.866211
2031.500000	10506.253906
2029.972656	10404.217773
2028.443359	10218.814453
2026.914063	10391.594727
2025.386719	10381.200195
2023.855469	10405.133789
2022.326172	10270.545898
2020.796875	10312.463867
2019.265625	10285.760742
2017.734375	10345.622070
2016.203125	10328.718750
2014.671875	10267.748047
2013.140625	10250.868164
2011.607422	10209.520508
2010.076172	10267.702148
2008.542969	10288.346680
2007.009766	10449.217773
2005.476563	10231.789063
2003.943359	10193.749023
2002.408203	10297.500977
2000.875000	10212.213867
1999.339844	10328.949219
1997.804688	10269.748047
1996.269531	10248.022461
1994.732422	10221.421875
1993.197266	10263.188477
1991.660156	10166.625977
1990.123047	10312.503906
1988.585938	10134.648438
1987.048828	10202.416016
1985.511719	10276.657227
1983.972656	10214.329102
1982.435547	10207.281250
1980.896484	10073.503906
1979.357422	10269.540039
1977.818359	10329.071289
1976.279297	10209.966797
1974.738281	10248.380859
1973.197266	10244.580078
1971.658203	10141.795898
1970.117188	10225.625000
1968.576172	10280.222656
1967.033203	10208.307617
1965.492188	10079.676758
1963.949219	10286.640625
1962.406250	10172.633789
1960.863281	10248.247070
1959.320313	10239.590820
1957.777344	10190.449219
1956.232422	10126.754883
1954.689453	10097.084961
1953.144531	10041.529297
1951.599609	10185.038086
1950.054688	10205.527344
1948.507813	10148.367188
1946.962891	10083.144531
1945.416016	10173.166016
1943.869141	10284.163086
1942.322266	10039.558594
1940.775391	10087.520508
1939.228516	10140.308594
1937.679688	10167.230469
1936.132813	10161.846680
1934.583984	10143.547852
1933.035156	10107.502930
1931.486328	10102.133789
1929.935547	10141.942383
1928.386719	10020.425781
1926.835938	10081.200195
1925.285156	10024.243164
1923.734375	10012.447266
1922.183594	10044.172852
1920.632813	9953.420898
1919.080078	10056.030273
1917.527344	10042.625977
1915.976563	10151.614258
1914.423828	10056.084961
1912.869141	9981.521484
1911.316406	10228.853516
1909.761719	10102.797852
1908.208984	9980.011719
1906.654297	9982.724609
1905.099609	10167.135742
1903.544922	9943.132813
1901.988281	10024.608398
1900.433594	9889.111328
1898.876953	10015.547852
1897.320313	10087.317383
1895.763672	9982.404297
1894.207031	10018.827148
1892.648438	10074.497070
1891.091797	10138.167969
1889.533203	9959.522461
1887.974609	10047.252930
1886.416016	9988.993164
1884.857422	10010.934570
1883.298828	10018.437500
1881.738281	9995.481445
1880.177734	9924.459961
1878.617188	10000.870117
1877.056641	9925.071289
1875.496094	9887.740234
1873.935547	9936.887695
1872.373047	9933.187500
1870.810547	9956.696289
1869.248047	9903.386719
1867.685547	10000.483398
1866.123047	10057.550781
1864.560547	9861.929688
1862.996094	9837.462891
1861.431641	9896.125977
1859.867188	9793.353516
1858.302734	9852.000000
1856.738281	9867.491211
1855.171875	9849.435547
1853.607422	9903.242188
1852.041016	9783.013672
1850.474609	9867.136719
1848.908203	9884.202148
1847.341797	10000.176758
1845.773438	9911.928711
1844.207031	9987.978516
1842.638672	9930.064453
1841.070313	9880.144531
1839.501953	9937.027344
1837.931641	9804.268555
1836.363281	9835.652344
1834.792969	9951.438477
1833.222656	9884.047852
1831.652344	9913.802734
1830.082031	9833.713867
1828.511719	9873.013672
1826.941406	10036.398438
1825.369141	9782.945313
1823.796875	10000.352539
1822.224609	9724.751953
1820.652344	9859.414063
1819.078125	9714.288086
1817.505859	9856.839844
1815.931641	9989.798828
1814.357422	9997.219727
1812.783203	9944.291016
1811.208984	9719.913086
1809.634766	9751.195313
1808.058594	9987.190430
1806.484375	9753.423828
1804.908203	9765.641602
1803.332031	9936.456055
1801.753906	9682.233398
1800.177734	9865.674805
1798.601563	9857.251953
1797.023438	9693.532227
1795.445313	9826.154297
1793.867188	9863.679688
1792.289063	9799.833008
1790.708984	9926.014648
1789.130859	9803.609375
1787.550781	9807.869141
1785.970703	9829.533203
1784.390625	9737.282227
1782.810547	9936.098633
1781.228516	9834.375000
1779.646484	9837.041016
1778.066406	9879.221680
1776.484375	9862.911133
1774.902344	9694.926758
1773.318359	9846.107422
1771.736328	9823.496094
1770.152344	9789.840820
1768.568359	9809.873047
1766.984375	10058.756836
1765.400391	9883.050781
1763.816406	9903.049805
1762.230469	9842.595703
1760.646484	9810.552734
1759.060547	9895.196289
1757.474609	9986.109375
1755.888672	9873.677734
1754.300781	9833.775391
1752.714844	10031.764648
1751.126953	9889.468750
1749.539063	9969.260742
1747.951172	9987.620117
1746.363281	9911.530273
1744.775391	9939.334961
1743.185547	9776.751953
1741.595703	9782.549805
1740.007813	9959.766602
1738.416016	9846.024414
1736.826172	10038.871094
1735.236328	10025.746094
1733.644531	10072.337891
1732.052734	10089.059570
1730.462891	10088.496094
1728.869141	10205.708984
1727.277344	10142.319336
1725.685547	10099.361328
1724.091797	10001.494141
1722.498047	10162.555664
1720.904297	10245.114258
1719.310547	10184.916992
1717.716797	10181.193359
1716.121094	10290.345703
1714.527344	10057.764648
1712.931641	10104.213867
1711.335938	10230.543945
1709.740234	10273.802734
1708.142578	10384.381836
1706.546875	10319.554688
1704.949219	10334.588867
1703.351563	10294.838867
1701.753906	10389.670898
1700.156250	10132.476563
1698.558594	10371.193359
1696.958984	10512.857422
1695.359375	10463.729492
1693.759766	10450.570313
1692.160156	10488.986328
1690.560547	10569.570313
1688.960938	10514.220703
1687.359375	10497.936523
1685.757813	10611.254883
1684.156250	10604.321289
1682.554688	10664.502930
1680.953125	10548.332031
1679.349609	10681.821289
1677.748047	10649.920898
1676.144531	10722.514648
1674.541016	10874.588867
1672.937500	10965.806641
1671.332031	10910.494141
1669.728516	10939.340820
1668.123047	10963.501953
1666.517578	11115.360352
1664.912109	11214.211914
1663.306641	11294.340820
1661.701172	11221.903320
1660.093750	11395.361328
1658.486328	11349.379883
1656.878906	11675.167969
1655.271484	11853.082031
1653.664063	11715.297852
1652.056641	11747.007813
1650.447266	11896.816406
1648.837891	12146.002930
1647.228516	12340.711914
1645.619141	12435.936523
1644.009766	12569.940430
1642.398438	12880.868164
1640.789063	12825.356445
1639.177734	13084.886719
1637.566406	13144.163086
1635.955078	13097.935547
1634.341797	13416.169922
1632.730469	13524.952148
1631.117188	13824.356445
1629.503906	13686.580078
1627.890625	13745.647461
1626.277344	14193.531250
1624.662109	14286.539063
1623.048828	14489.450195
1621.433594	14585.449219
1619.818359	15014.195313
1618.203125	15097.659180
1616.587891	15454.940430
1614.970703	15426.898438
1613.353516	15814.885742
1611.738281	16218.168945
1610.121094	16292.006836
1608.501953	16538.914063
1606.884766	16652.826172
1605.267578	16643.095703
1603.648438	16506.714844
1602.029297	16673.060547
1600.410156	16928.880859
1598.791016	16888.224609
1597.169922	16903.140625
1595.550781	17238.974609
1593.929688	17205.988281
1592.308594	17100.527344
1590.687500	17169.347656
1589.064453	17253.552734
1587.443359	17083.412109
1585.820313	17169.138672
1584.197266	17076.117188
1582.574219	16832.185547
1580.951172	17116.560547
1579.328125	16848.089844
1577.703125	17027.664063
1576.080078	17174.843750
1574.455078	17237.333984
1572.830078	17078.281250
1571.203125	17354.541016
1569.578125	17224.742188
1567.951172	17182.625000
1566.324219	17211.226563
1564.697266	16883.308594
1563.070313	17084.029297
1561.443359	17049.652344
1559.816406	17064.431641
1558.187500	17280.332031
1556.558594	17235.187500
1554.929688	17507.740234
1553.300781	17534.677734
1551.669922	17756.423828
1550.041016	17798.630859
1548.410156	17480.474609
1546.779297	17768.007813
1545.148438	17750.404297
1543.517578	17864.593750
1541.884766	17490.003906
1540.251953	17539.863281
1538.621094	17242.072266
1536.988281	17056.175781
1535.353516	16688.199219
1533.720703	16536.166016
1532.085938	16027.687500
1530.453125	16097.675781
1528.818359	16028.454102
1527.183594	15670.259766
1525.546875	15903.854492
1523.912109	15799.560547
1522.275391	15721.288086
1520.640625	15672.076172
1519.003906	15824.508789
1517.365234	15787.510742
1515.728516	15660.444336
1514.091797	15704.398438
1512.453125	15583.506836
1510.814453	15664.075195
1509.175781	15384.590820
1507.537109	15350.776367
1505.896484	15454.210938
1504.257813	15101.772461
1502.617188	15083.279297
1500.976563	14997.743164
1499.335938	14872.630859
1497.693359	14682.074219
1496.052734	14544.898438
1494.410156	14348.401367
1492.767578	14232.666016
1491.125000	13973.920898
1489.482422	14107.847656
1487.837891	13738.190430
1486.195313	13691.121094
1484.550781	13853.909180
1482.906250	13625.923828
1481.261719	13498.350586
1479.617188	13433.133789
1477.970703	13355.790039
1476.324219	13401.511719
1474.677734	13410.766602
1473.031250	13286.407227
1471.384766	13363.987305
1469.738281	13229.067383
1468.089844	13258.070313
1466.441406	13502.469727
1464.792969	13444.951172
1463.144531	13419.298828
1461.496094	13375.464844
1459.845703	13355.898438
1458.197266	13409.075195
1456.546875	13188.014648
1454.896484	13116.999023
1453.244141	13144.446289
1451.593750	13271.804688
1449.941406	13288.607422
1448.291016	12952.791016
1446.638672	12844.072266
1444.984375	12696.069336
1443.332031	12892.950195
1441.679688	12823.625000
1440.025391	12767.933594
1438.371094	12834.688477
1436.716797	12581.068359
1435.062500	12656.896484
1433.406250	12652.638672
1431.750000	12257.272461
1430.095703	12259.140625
1428.439453	12060.253906
1426.781250	12188.924805
1425.125000	11762.314453
1423.466797	11949.821289
1421.810547	11808.478516
1420.152344	11888.838867
1418.494141	11711.389648
1416.833984	11877.640625
1415.175781	11713.830078
1413.515625	12050.236328
1411.855469	11903.024414
1410.195313	12055.532227
1408.535156	12052.908203
1406.875000	12096.943359
1405.212891	12219.209961
1403.550781	12162.385742
1401.888672	12290.598633
1400.226563	12331.531250
1398.564453	12201.044922
1396.900391	12511.047852
1395.238281	12302.427734
1393.574219	12205.084961
1391.910156	12200.919922
1390.244141	12244.815430
1388.580078	12306.709961
1386.914063	12063.827148
1385.248047	12163.253906
1383.582031	11949.017578
1381.916016	12163.942383
1380.250000	12263.278320
1378.582031	12374.567383
1376.916016	12263.916016
1375.248047	12313.697266
1373.578125	12408.413086
1371.910156	12297.823242
1370.242188	12331.083984
1368.572266	12247.514648
1366.902344	12300.233398
1365.232422	12216.705078
1363.562500	12275.391602
1361.890625	12157.487305
1360.220703	12163.799805
1358.548828	12147.673828
1356.876953	12219.778320
1355.205078	12070.589844
1353.531250	12094.847656
1351.859375	12151.968750
1350.185547	12482.467773
1348.511719	12612.666992
1346.837891	12627.819336
1345.164063	12926.639648
1343.488281	13053.666016
1341.812500	12998.566406
1340.138672	13235.930664
1338.460938	13364.293945
1336.785156	13838.601563
1335.109375	13805.739258
1333.431641	13611.890625
1331.753906	13592.502930
1330.076172	13635.706055
1328.398438	13488.200195
1326.720703	13434.591797
1325.041016	13464.395508
1323.361328	13224.716797
1321.681641	13221.805664
1320.001953	13318.596680
1318.322266	13434.685547
1316.640625	13317.191406
1314.960938	13235.438477
1313.279297	13063.025391
1311.597656	13150.820313
1309.914063	13021.597656
1308.232422	12792.881836
1306.548828	12950.491211
1304.865234	12659.512695
1303.181641	12582.476563
1301.498047	12584.151367
1299.814453	12468.575195
1298.128906	12406.466797
1296.443359	12403.725586
1294.757813	12196.303711
1293.072266	12284.062500
1291.386719	12136.058594
1289.699219	12051.852539
1288.011719	12144.027344
1286.324219	12090.967773
1284.636719	11965.350586
1282.949219	11986.396484
1281.259766	11890.466797
1279.572266	11948.523438
1277.882813	11849.682617
1276.193359	11984.658203
1274.501953	11965.730469
1272.812500	12174.565430
1271.121094	11976.690430
1269.429688	11886.816406
1267.738281	11848.708984
1266.046875	11634.781250
1264.353516	11522.878906
1262.662109	11558.722656
1260.968750	11433.595703
1259.275391	11215.515625
1257.582031	11186.457031
1255.886719	10993.612305
1254.193359	11039.854492
1252.498047	10900.226563
1250.802734	10844.714844
1249.107422	10792.175781
1247.410156	10783.878906
1245.714844	10834.532227
1244.017578	10680.365234
1242.320313	10828.237305
1240.623047	10716.846680
1238.925781	10515.689453
1237.226563	10716.489258
1235.527344	10625.798828
1233.828125	10580.760742
1232.128906	10440.122070
1230.429688	10499.565430
1228.728516	10717.784180
1227.029297	10569.856445
1225.328125	10688.017578
1223.626953	10501.954102
1221.923828	10518.708008
1220.222656	10274.013672
1218.519531	10343.672852
1216.816406	10410.363281
1215.113281	10540.137695
1213.410156	10540.716797
1211.707031	10394.582031
1210.001953	10376.123047
1208.296875	10304.878906
1206.591797	10317.235352
1204.886719	10306.131836
1203.179688	10362.444336
1201.474609	10450.964844
1199.767578	10239.154297
1198.060547	10337.911133
1196.353516	10345.844727
1194.644531	10343.526367
1192.937500	10329.500000
1191.228516	10368.154297
1189.519531	10446.286133
1187.810547	10388.367188
1186.099609	10369.953125
1184.390625	10281.375000
1182.679688	10176.759766
1180.968750	10146.711914
1179.257813	10255.460938
1177.544922	10102.719727
1175.833984	10120.893555
1174.121094	10209.133789
1172.408203	10224.353516
1170.695313	10157.847656
1168.982422	10122.008789
1167.267578	10288.929688
1165.552734	10216.618164
1163.837891	10151.626953
1162.123047	9974.428711
1160.408203	10043.590820
1158.691406	10076.295898
1156.976563	10111.898438
1155.259766	10112.533203
1153.541016	10002.512695
1151.824219	9981.334961
1150.107422	9862.659180
1148.388672	9854.615234
1146.669922	9747.657227
1144.951172	9527.308594
1143.230469	9576.048828
1141.511719	9575.340820
1139.791016	9467.084961
1138.070313	9496.913086
1136.349609	9215.852539
1134.628906	9283.483398
1132.906250	9031.635742
1131.185547	8983.139648
1129.462891	9127.698242
1127.740234	9058.885742
1126.015625	9029.272461
1124.292969	9028.680664
1122.568359	9013.586914
1120.843750	9089.832031
1119.119141	9010.955078
1117.394531	8911.827148
1115.667969	8950.373047
1113.941406	8907.789063
1112.214844	8875.360352
1110.488281	8860.319336
1108.761719	8806.202148
1107.033203	8688.436523
1105.306641	8715.401367
1103.578125	8629.530273
1101.849609	8663.724609
1100.119141	8638.625000
1098.390625	8642.445313
1096.660156	8734.416992
1094.929688	8586.506836
1093.199219	8545.555664
1091.468750	8628.818359
1089.736328	8582.098633
1088.003906	8405.483398
1086.273438	8455.526367
1084.539063	8351.161133
1082.806641	8441.582031
1081.074219	8353.129883
1079.339844	8580.483398
1077.605469	8425.727539
1075.871094	8436.780273
1074.134766	8390.191406
1072.400391	8378.195313
1070.664063	8442.536133
1068.927734	8296.623047
1067.191406	8204.039063
1065.455078	8266.933594
1063.716797	8334.115234
1061.978516	8271.793945
1060.240234	8048.416504
1058.501953	8175.991699
1056.763672	8349.510742
1055.023438	8091.771973
1053.283203	7979.279785
1051.542969	8011.935547
1049.802734	7911.001465
1048.062500	7775.650391
1046.320313	7855.702637
1044.578125	7862.518066
1042.835938	7903.768555
1041.093750	7797.231934
1039.351563	7775.367676
1037.607422	7829.512695
1035.863281	7829.153809
1034.119141	7748.528809
1032.375000	7885.753906
1030.628906	7835.236816
1028.884766	7922.246094
1027.138672	7765.773926
1025.392578	7941.521484
1023.646484	7921.093262
1021.898438	7966.500000
1020.152344	7964.672363
1018.404297	7917.073242
1016.656250	8021.079102
1014.906250	7940.603516
1013.158203	7945.927246
1011.408203	7942.673340
1009.658203	7743.685059
1007.908203	7914.741699
1006.158203	7698.712402
1004.406250	7679.810059
1002.656250	7845.051270
1000.904297	7744.778320
999.150391	7857.137695
997.398438	7871.020508
995.646484	7732.303711
993.892578	7761.891113
992.138672	7764.380371
990.384766	7789.669434
988.628906	7766.503418
986.875000	7806.023438
985.119141	7691.718750
983.363281	7862.226074
981.607422	7833.367676
979.849609	7683.554199
978.093750	7640.520508
976.335938	7551.986328
974.578125	7632.729004
972.820313	7566.985352
971.060547	7602.197754
969.300781	7688.555176
967.542969	7646.996094
965.781250	7612.558105
964.021484	7830.928711
962.261719	7749.606934
960.500000	7834.407227
958.738281	7727.575195
956.976563	7910.242188
955.214844	7830.392578
953.451172	7810.144531
951.687500	7777.144043
949.923828	7759.750977
948.160156	7682.841309
946.396484	7588.963379
944.630859	7740.196777
942.865234	7557.123535
941.099609	7638.912598
939.333984	7543.712891
937.568359	7510.828613
935.800781	7585.494629
934.033203	7487.541992
932.265625	7574.905762
930.498047	7566.078613
928.730469	7594.009766
926.960938	7592.247559
925.191406	7621.570801
923.421875	7484.187500
921.652344	7486.686523
919.880859	7520.247559
918.109375	7404.156250
916.337891	7429.251465
914.566406	7373.906738
912.794922	7366.550293
911.021484	7364.837402
909.248047	7398.375488
907.474609	7259.914551
905.701172	7211.716797
903.927734	7233.992676
902.152344	7230.900391
900.376953	7106.687988
898.601563	7182.476563
896.826172	7252.598145
895.050781	7170.687500
893.273438	7143.689941
891.496094	7219.395996
889.718750	7167.083008
887.939453	6989.651367
886.162109	6961.312500
884.382813	7117.097656
882.603516	7074.689941
880.824219	6953.633789
879.044922	6971.673340
877.263672	7117.479004
875.482422	7037.205566
873.701172	7058.018066
871.919922	7085.835938
870.138672	7046.305176
868.355469	6883.374023
866.572266	7027.589844
864.789063	6923.614258
863.005859	6994.874023
861.220703	6847.517578
859.435547	6963.586914
857.650391	6924.144531
855.865234	6956.129883
854.080078	6866.311035
852.292969	6864.704590
850.505859	6910.670898
848.718750	7020.963867
846.931641	6975.964844
845.144531	7000.897461
843.355469	6953.127441
841.566406	6999.016113
839.777344	7016.937500
837.988281	6952.432129
836.197266	7017.838867
834.408203	7034.345215
832.617188	6887.519043
830.824219	6918.002930
829.033203	6884.289063
827.240234	6842.220703
825.449219	6846.193848
823.656250	6748.380859
821.861328	6996.316895
820.068359	6833.012207
818.273438	6836.980957
816.478516	6910.596680
814.683594	6811.487793
812.888672	6793.179688
811.091797	6745.647461
809.296875	6705.095215
807.500000	6760.564453
805.701172	6704.725098
803.904297	6628.051270
802.105469	6648.738281
800.308594	6611.033691
798.509766	6556.669434
796.708984	6726.020996
794.910156	6532.748047
793.109375	6699.247070
791.308594	6644.910645
789.507813	6553.121094
787.707031	6564.067871
785.904297	6569.458984
784.101563	6530.459961
782.298828	6502.572266
780.496094	6430.331543
778.693359	6503.666504
776.888672	6540.935547
775.083984	6467.349121
773.279297	6450.587891
771.474609	6525.231445
769.667969	6471.081543
767.861328	6541.531250
766.054688	6534.452637
764.248047	6441.599121
762.441406	6543.817383
760.632813	6504.935547
758.824219	6503.399902
757.015625	6493.570801
755.207031	6522.438477
753.398438	6693.591309
751.587891	6885.380859
749.777344	7133.695801
747.966797	7326.669922
746.154297	7522.312500
744.343750	7691.643555
742.531250	7825.024902
740.718750	7923.860840
738.906250	8361.867188
737.091797	8915.469727
735.277344	9398.516602
733.464844	9915.782227
731.648438	10220.648438
729.833984	9942.767578
728.019531	9373.098633
726.203125	8632.994141
724.386719	8035.000000
722.568359	7430.408691
720.751953	7181.027344
718.933594	6955.144043
717.115234	6766.493164
715.296875	6566.933594
713.478516	6543.387207
711.658203	6394.813477
709.839844	6450.994141
708.019531	6508.520508
706.197266	6589.361816
704.376953	6617.999512
702.554688	6480.560547
700.734375	6431.000000
698.910156	6454.166016
697.087891	6382.691406
695.265625	6312.621094
693.441406	6429.010742
691.617188	6494.637695
689.792969	6638.330566
687.966797	6669.630371
686.140625	6498.229980
684.316406	6533.654297
682.490234	6540.315430
680.662109	6484.020996
678.835938	6561.835938
677.007813	6459.054688
675.179688	6445.211914
673.351563	6507.939453
671.521484	6361.502441
669.693359	6342.224609
667.863281	6399.465332
666.033203	6317.354492
664.201172	6410.078125
662.371094	6461.798828
660.539063	6554.442871
658.707031	6364.566406
656.875000	6563.603027
655.041016	6594.776367
653.208984	6578.207031
651.375000	6607.998047
649.541016	6639.136719
647.705078	6730.217773
645.871094	6784.471680
644.035156	6722.927246
642.199219	6775.794434
640.363281	6661.187012
638.525391	6880.089844
636.689453	6753.264648
634.851563	6720.366699
633.013672	6669.802734
631.173828	6717.164551
629.335938	6597.293457
627.496094	6461.169922
625.656250	6606.377930
623.816406	6498.843750
621.974609	6360.123535
620.132813	6278.496582
618.292969	6275.641602
616.449219	6287.716797
614.607422	6184.454590
612.763672	6174.840332
610.921875	6129.969238
609.078125	6231.552734
607.232422	6090.445313
605.388672	6091.702637
603.542969	6050.957031
601.697266	6095.568359
599.851563	6182.139160
598.005859	6100.782227
596.158203	6003.220215
594.310547	6146.587891
592.462891	6089.648926
590.615234	6071.963379
588.765625	5994.784180
586.916016	6027.151855
585.066406	5835.127930
583.216797	5778.329102
581.367188	5772.895996
579.515625	5840.402344
577.664063	5926.780762
575.812500	5851.112305
573.960938	5967.140137
572.107422	5922.533203
570.253906	5846.918457
568.400391	5852.264648
566.546875	5867.046875
564.693359	5829.245605
562.837891	5761.810059
560.982422	5772.560059
559.126953	5856.049805
557.269531	5802.123535
555.414063	5864.021484
553.556641	5777.810059
551.699219	5792.578613
549.841797	5663.366699
547.982422	5862.449219
546.123047	5659.312988
544.263672	5733.255371
542.404297	5733.228027
540.544922	5721.104492
538.683594	5713.017578
536.822266	5692.844727
534.960938	5628.363281
533.099609	5683.407227
531.236328	5647.146973
529.373047	5604.193359
527.509766	5663.227539
525.646484	5641.751465
523.783203	5629.672852
521.917969	5856.246582
520.052734	5994.245605
518.187500	5827.981445
516.320313	5585.430664
514.455078	5570.699219
512.587891	5659.085938
510.720703	5638.987793
508.853516	5640.313965
506.984375	5526.559082
505.115234	5642.964355
503.246094	5712.500977
501.376953	5475.787598
499.507813	5565.382813
497.636719	5580.088379
495.765625	5491.896973
493.894531	5462.527344
492.021484	5429.165039
490.150391	5382.465332
488.277344	5407.874512
486.404297	5540.041992
484.531250	5399.946777
482.656250	5426.666504
480.781250	5457.374512
478.906250	5550.734863
477.031250	5414.768555
475.156250	5450.787109
473.279297	5390.855957
471.402344	5468.156250
469.525391	5553.410156
467.648438	5537.433594
465.769531	5441.597168
463.890625	5568.049805
462.011719	5558.732422
460.132813	5397.781250
458.251953	5462.979492
456.371094	5436.409668
454.490234	5396.559570
452.609375	5439.119629
450.728516	5445.787109
448.845703	5494.955566
446.962891	5289.137695
445.080078	5417.975586
443.197266	5424.641113
441.312500	5349.030273
439.427734	5414.081055
437.542969	5383.604004
435.658203	5423.419922
433.771484	5363.789551
431.886719	5342.623047
430.000000	5398.320313
428.111328	5340.062500
426.224609	5263.290039
424.335938	5262.028320
422.447266	5345.490234
420.558594	5342.885254
418.669922	5323.080566
416.779297	5405.144043
414.888672	5353.592773
412.998047	5327.187500
411.107422	5361.602051
409.214844	5395.999512
407.324219	5479.267090
405.431641	5324.724609
403.537109	5397.403320
401.644531	5364.422363
399.750000	5361.816895
