#Wave		#Intensity
1585.210938	5729.599609
1584.209961	5794.538574
1583.208984	5755.880859
1582.208008	5834.580078
1581.206055	5768.472656
1580.204102	5859.614258
1579.202148	5883.350586
1578.200195	5904.583008
1577.198242	5908.347656
1576.195313	5892.163086
1575.192383	5963.239258
1574.189453	5909.662109
1573.186523	5743.968750
1572.182617	5976.974609
1571.178711	5908.481445
1570.174805	5884.844238
1569.170898	5833.827637
1568.166992	5874.938965
1567.162109	5809.011719
1566.158203	5643.577637
1565.153320	5809.093750
1564.147461	5561.645996
1563.142578	5682.347656
1562.136719	5678.685059
1561.130859	5650.165527
1560.125000	5731.009277
1559.119141	5737.276855
1558.113281	5646.656250
1557.106445	5757.254395
1556.099609	5790.827148
1555.092773	5804.524414
1554.084961	5815.733398
1553.078125	5901.387207
1552.070313	5934.901367
1551.062500	5745.144531
1550.054688	5572.826660
1549.045898	5673.336914
1548.038086	5756.451172
1547.029297	5760.216797
1546.020508	5669.813477
1545.011719	5688.460449
1544.001953	5672.420410
1542.992188	5619.238770
1541.982422	5660.167480
1540.972656	5473.333008
1539.962891	5511.799805
1538.952148	5419.103027
1537.942383	5420.455078
1536.931641	5434.173340
1535.919922	5378.643555
1534.909180	5434.395996
1533.897461	5453.045898
1532.886719	5387.660645
1531.874023	5468.084473
1530.862305	5424.956055
1529.850586	5475.699707
1528.837891	5390.607910
1527.825195	5461.088379
1526.812500	5538.944336
1525.799805	5510.651367
1524.786133	5467.565918
1523.772461	5513.303223
1522.758789	5369.116699
1521.745117	5528.280762
1520.731445	5551.788574
1519.716797	5469.301758
1518.702148	5633.273926
1517.687500	5735.584473
1516.672852	5724.543945
1515.657227	5614.998535
1514.642578	5773.879395
1513.626953	5841.611328
1512.610352	5808.405762
1511.594727	5881.023438
1510.579102	5771.558105
1509.562500	5790.040039
1508.545898	5734.739258
1507.529297	5708.964844
1506.511719	5602.083008
1505.494141	5733.634277
1504.477539	5388.450684
1503.458984	5650.190918
1502.441406	5599.898438
1501.423828	5696.961914
1500.405273	5666.320801
1499.386719	5655.328613
1498.368164	5649.249023
1497.348633	5608.821289
1496.330078	5705.781250
1495.310547	5628.570313
1494.291016	5620.047852
1493.271484	5687.525879
1492.250977	5718.210449
1491.231445	5506.282227
1490.210938	5610.490723
1489.190430	5616.676758
1488.168945	5605.716309
1487.148438	5775.947754
1486.126953	5735.583008
1485.105469	5741.736816
1484.083984	5831.083496
1483.061523	5959.536133
1482.040039	5928.949707
1481.017578	5957.065430
1479.995117	6195.433105
1478.971680	6243.036621
1477.949219	6388.376953
1476.925781	6360.174805
1475.902344	6517.644043
1474.878906	6482.099121
1473.855469	6627.267578
1472.831055	6730.872070
1471.806641	6746.562500
1470.782227	6820.813965
1469.757813	6792.561035
1468.733398	6808.227539
1467.708008	6950.707031
1466.682617	7085.812012
1465.657227	7118.471191
1464.631836	7365.601563
1463.605469	7500.535156
1462.579102	7593.995117
1461.552734	7643.571289
1460.526367	7870.903809
1459.500000	7964.227051
1458.472656	8003.957031
1457.445313	8072.875977
1456.417969	8027.400879
1455.390625	7957.616699
1454.362305	7741.924805
1453.334961	7664.932617
1452.306641	7505.309082
1451.277344	7387.074219
1450.249023	7164.387207
1449.219727	7145.891113
1448.191406	7083.675781
1447.162109	6815.042969
1446.131836	6862.192383
1445.102539	6914.176758
1444.072266	6818.078613
1443.041992	6763.274414
1442.011719	6752.164063
1440.981445	6631.900879
1439.950195	6468.034180
1438.918945	6558.828613
1437.887695	6586.555664
1436.856445	6347.664551
1435.825195	6426.310547
1434.792969	6366.830078
1433.760742	6137.820801
1432.728516	6165.604980
1431.696289	6297.487793
1430.663086	6163.041016
1429.629883	5972.985840
1428.596680	6015.297852
1427.563477	5888.250000
1426.530273	5908.793457
1425.496094	5813.255859
1424.461914	5831.387695
1423.427734	5842.260254
1422.393555	5734.711914
1421.358398	5738.351074
1420.323242	5879.679688
1419.288086	5907.437988
1418.252930	5732.354492
1417.217773	5834.968750
1416.181641	5693.763184
1415.145508	5953.196289
1414.109375	5869.927246
1413.073242	5921.771973
1412.036133	6065.235840
1411.000000	6338.840820
1409.962891	6373.679688
1408.924805	6333.790039
1407.887695	6503.553711
1406.849609	6762.382813
1405.812500	6744.113281
1404.773438	7041.313965
1403.735352	7403.395020
1402.697266	7505.357910
1401.658203	7527.859375
1400.619141	7641.783203
1399.580078	7784.525879
1398.540039	7814.169434
1397.500977	7884.677734
1396.460938	7875.821289
1395.420898	7794.859863
1394.380859	7622.614258
1393.339844	7450.440430
1392.298828	7369.616699
1391.257813	7171.148926
1390.216797	7260.894043
1389.175781	7206.565918
1388.133789	7106.658203
1387.091797	7261.147949
1386.049805	7240.439453
1385.007813	7380.444336
1383.964844	7580.342285
1382.922852	7681.855469
1381.879883	7927.150879
1380.835938	8090.859375
1379.792969	8295.232422
1378.749023	8456.398438
1377.706055	8610.312500
1376.661133	8668.377930
1375.617188	8771.906250
1374.573242	8841.879883
1373.528320	8784.991211
1372.483398	8924.316406
1371.438477	8807.631836
1370.392578	8750.783203
1369.347656	8428.548828
1368.301758	8402.880859
1367.255859	8276.838867
1366.208984	8158.018555
1365.163086	8017.745605
1364.116211	7758.101563
1363.069336	7694.388184
1362.022461	7642.638672
1360.974609	7521.685547
1359.927734	7453.286621
1358.879883	7384.916016
1357.832031	7524.119141
1356.783203	7462.916992
1355.735352	7511.430176
1354.686523	7502.704590
1353.637695	7889.657227
1352.588867	8066.735352
1351.539063	8160.348633
1350.490234	8444.489258
1349.440430	8857.115234
1348.390625	9062.413086
1347.339844	9393.795898
1346.290039	9974.948242
1345.239258	10313.137695
1344.188477	10665.458984
1343.137695	11124.668945
1342.085938	11590.820313
1341.034180	11823.770508
1339.982422	12379.907227
1338.930664	12584.073242
1337.878906	13032.890625
1336.826172	13317.602539
1335.773438	13428.812500
1334.720703	13528.100586
1333.667969	13784.037109
1332.614258	13766.901367
1331.561523	13612.131836
1330.507813	13519.113281
1329.453125	13478.320313
1328.399414	13356.907227
1327.344727	12863.281250
1326.290039	12718.340820
1325.235352	12374.371094
1324.180664	12250.919922
1323.125000	12155.948242
1322.070313	11719.935547
1321.014648	11395.406250
1319.958008	11210.702148
1318.902344	10786.996094
1317.845703	10446.298828
1316.789063	10252.444336
1315.732422	9800.816406
1314.675781	9574.066406
1313.618164	9267.012695
1312.560547	8837.152344
1311.502930	8636.746094
1310.445313	8545.127930
1309.386719	8387.393555
1308.329102	8090.358887
1307.270508	8036.698242
1306.210938	7890.974609
1305.152344	7688.655762
1304.092773	7231.524902
1303.033203	7303.150391
1301.973633	7308.688477
1300.914063	7196.290039
1299.853516	6897.643555
1298.792969	6905.619629
1297.732422	6635.444824
1296.671875	6546.848145
1295.611328	6663.275879
1294.549805	6494.616211
1293.488281	6505.021484
1292.426758	6291.726563
1291.364258	6193.876465
1290.302734	6114.896973
1289.240234	6064.188477
1288.177734	6006.443359
1287.114258	6016.935547
1286.051758	6173.228516
1284.988281	6096.685547
1283.924805	5999.018066
1282.861328	6159.915039
1281.796875	6102.219727
1280.732422	6131.469238
1279.667969	6259.353027
1278.603516	6283.859863
1277.539063	6463.306152
1276.473633	6337.535156
1275.408203	6404.250000
1274.342773	6705.560059
1273.277344	6760.438477
1272.210938	6808.257813
1271.145508	6799.782227
1270.079102	6744.424805
1269.011719	6738.309082
1267.945313	6673.613770
1266.877930	6758.882324
1265.810547	6656.732910
1264.743164	6458.613281
1263.674805	6375.299805
1262.607422	6357.562988
1261.539063	6297.708008
1260.470703	6249.577148
1259.401367	6292.698242
1258.333008	6197.812012
1257.263672	6161.422852
1256.194336	6143.750977
1255.125000	6137.772461
1254.054688	6110.765137
1252.985352	6018.351563
1251.915039	6145.544434
1250.843750	5985.437500
1249.773438	6180.291992
1248.702148	5919.868164
1247.630859	6161.330078
1246.559570	6094.687500
1245.488281	6158.711914
1244.416016	6124.750000
1243.343750	6207.395020
1242.271484	6140.797363
1241.199219	6092.874512
1240.125977	6124.203613
1239.053711	6015.727051
1237.980469	6102.963867
1236.906250	6097.007324
1235.833008	6149.262695
1234.758789	6085.101074
1233.684570	6046.567383
1232.610352	6028.991699
1231.536133	6141.701660
1230.460938	6210.170898
1229.385742	6050.720215
1228.310547	6063.380859
1227.235352	6108.577148
1226.159180	6070.092285
1225.083008	6080.416016
1224.006836	5983.879395
1222.930664	5898.995605
1221.853516	5934.888672
1220.777344	6038.087891
1219.700195	5781.495117
1218.622070	6012.307617
1217.544922	5892.706055
1216.466797	5733.724609
1215.388672	5834.535645
1214.310547	5773.009766
1213.232422	5718.463379
1212.153320	5770.543945
1211.074219	5711.386719
1209.995117	5603.607422
1208.916016	5926.650391
1207.835938	5737.827637
1206.755859	5815.311523
1205.675781	5670.568359
1204.595703	5780.429199
1203.514648	5776.879395
1202.434570	5687.748535
1201.353516	5672.656250
1200.271484	5787.044922
1199.190430	5769.625488
1198.108398	5680.570313
1197.026367	5492.199219
1195.944336	5775.161133
1194.862305	5536.038574
1193.779297	5629.524902
1192.696289	5630.627441
1191.613281	5382.455566
1190.530273	5441.299805
1189.446289	5488.582520
1188.362305	5508.165039
1187.278320	5370.923828
1186.194336	5328.270996
1185.109375	5352.484375
1184.024414	5482.699707
1182.939453	5412.399414
1181.854492	5323.700195
1180.768555	5334.073242
1179.683594	5286.875000
1178.597656	5119.984863
1177.510742	5256.984863
1176.424805	5007.330078
1175.337891	5075.274414
1174.250977	4931.573242
1173.164063	5176.579102
1172.077148	5042.113770
1170.989258	5195.041992
1169.901367	5074.418945
1168.813477	5107.793457
1167.724609	4851.704590
1166.636719	5142.343262
1165.547852	5134.348145
1164.458984	5025.344238
1163.369141	5125.252930
1162.280273	5112.675781
1161.190430	5217.110352
1160.100586	5144.880371
1159.010742	5173.584473
1157.919922	5138.078613
1156.829102	5150.725098
1155.738281	5117.530273
1154.647461	5082.058105
1153.555664	5190.919922
1152.464844	5166.897949
1151.373047	5186.391602
1150.280273	5205.876465
1149.188477	5138.377930
1148.095703	5155.575684
1147.002930	5172.765625
1145.910156	5041.271484
1144.817383	5218.556152
1143.723633	5222.001953
1142.629883	5296.307129
1141.536133	5366.008789
1140.441406	5296.303711
1139.347656	5279.168945
1138.252930	5341.976074
1137.158203	5288.303711
1136.062500	5312.271973
1134.967773	5260.910645
1133.872070	5175.342773
1132.776367	5308.826172
1131.679688	5433.127441
1130.583984	5384.062988
1129.487305	5442.175781
1128.390625	5609.675293
1127.292969	5503.629395
1126.196289	5500.159180
1125.098633	5533.137207
1124.000977	5638.979004
1122.903320	5496.585449
1121.804688	5479.458984
1120.706055	5551.102539
1119.607422	5467.981445
1118.508789	5473.621094
1117.409180	5513.374512
1116.310547	5428.040527
1115.210938	5438.230469
1114.110352	5412.047363
1113.010742	5515.408691
1111.910156	5496.035156
1110.809570	5360.821289
1109.708984	5505.003906
1108.607422	5465.208984
1107.506836	5507.152832
1106.405273	5403.826172
1105.303711	5432.149414
1104.201172	5344.762695
1103.098633	5193.907715
1101.996094	5292.552246
1100.893555	5200.717285
1099.791016	5131.587891
1098.687500	5264.171875
1097.583984	5131.621094
1096.480469	5223.374023
1095.376953	5210.914063
1094.272461	5110.157715
1093.167969	5059.244629
1092.063477	4976.669434
1090.958008	5032.151367
1089.853516	5012.958008
1088.748047	5027.697266
1087.642578	4951.982422
1086.536133	5034.548340
1085.430664	5112.557617
1084.324219	5005.236328
1083.217773	5017.700195
1082.110352	5084.366699
1081.003906	5171.328125
1079.896484	5043.766602
1078.789063	5081.039063
1077.680664	4982.889648
1076.573242	5038.208008
1075.464844	5028.084473
1074.356445	5078.857422
1073.247070	5082.257324
1072.138672	5054.095215
1071.029297	5156.664551
1069.919922	4961.754395
1068.809570	5138.640625
1067.700195	5126.255371
1066.589844	5116.126953
1065.479492	5119.510254
1064.368164	5120.641113
1063.257813	5155.525879
1062.146484	5122.899414
1061.035156	5092.536133
1059.922852	5158.887207
1058.811523	5142.018555
1057.699219	5188.097656
1056.586914	5119.539551
1055.473633	5109.430176
1054.361328	5175.702148
1053.248047	5077.993652
1052.134766	5058.916992
1051.021484	5230.666504
1049.907227	5157.697754
1048.792969	5143.102539
1047.678711	5175.625977
1046.564453	5208.134277
1045.449219	5426.752441
1044.333984	5268.623047
1043.218750	5336.952148
1042.103516	5396.286621
1040.987305	5377.177246
1039.871094	5454.395996
1038.754883	5480.071289
1037.638672	5548.276367
1036.521484	5627.643555
1035.404297	5476.458496
1034.287109	5634.119141
1033.169922	5503.131348
1032.051758	5508.630371
1030.933594	5666.178711
1029.815430	5716.350098
1028.697266	5712.856934
1027.578125	5602.104492
1026.458984	5772.895996
1025.339844	5709.083984
1024.220703	5761.420898
1023.100586	5771.314941
1021.980469	5814.685547
1020.860352	5757.613281
1019.740234	5785.349121
1018.619141	5839.839844
1017.498047	5818.480957
1016.376953	5743.618652
1015.255859	5818.143555
1014.133789	5785.658203
1013.011719	5882.421875
1011.889648	5807.609375
1010.767578	5902.097656
1009.644531	5894.114258
1008.521484	5819.347168
1007.398438	5889.285156
1006.274414	5881.308594
1005.151367	5782.120117
1004.027344	5736.356934
1002.902344	5737.312988
1001.778320	5749.384277
1000.653320	5770.340820
999.528320	5664.617188
998.403320	5683.360352
997.278320	5508.840820
996.152344	5547.596680
995.026367	5484.199707
993.900391	5622.835449
992.773438	5528.377930
991.646484	5382.928711
990.519531	5410.575195
989.392578	5424.901855
988.265625	5363.830566
987.137695	5426.931641
986.009766	5372.535156
984.881836	5528.673340
983.752930	5492.000977
982.624023	5442.054688
981.495117	5361.128418
980.366211	5366.581055
979.236328	5316.694336
978.106445	5386.329102
976.976563	5469.207031
975.846680	5437.025391
974.715820	5424.760742
973.585938	5450.087891
972.454102	5375.930664
971.323242	5368.106445
970.191406	5430.989746
969.060547	5535.815918
967.927734	5596.424316
966.795898	5495.818359
965.663086	5863.257324
964.530273	6014.240234
963.397461	6224.733398
962.264648	6353.507324
961.130859	6466.783691
959.997070	6670.418457
958.863281	6713.025879
957.729492	6815.125000
956.594727	6912.770508
955.459961	6750.401855
954.325195	6488.986328
953.189453	6430.284668
952.053711	6235.105469
950.917969	5989.386230
949.782227	5789.989746
948.646484	5724.893066
947.509766	5565.238281
946.373047	5484.825684
945.235352	5380.262207
944.098633	5398.846191
942.960938	5278.963379
941.823242	5242.629395
940.685547	5333.722656
939.546875	5328.139160
938.408203	5199.594727
937.269531	5200.628418
936.129883	5157.765625
934.991211	5130.281738
933.851563	5203.725098
932.711914	5217.915039
931.571289	5304.461914
930.431641	5263.813965
929.291016	5308.665527
928.149414	5318.435059
927.008789	5315.054688
925.867188	5274.438477
924.725586	5282.017578
923.583984	5191.070313
922.441406	5253.386719
921.299805	5333.182129
920.157227	5237.906738
919.013672	5203.921875
917.871094	5178.699707
916.727539	5227.828125
915.583984	4949.038086
914.439453	5068.130371
913.295898	4977.409668
912.151367	5048.382324
911.006836	5038.514160
909.861328	5037.384277
908.716797	5097.379395
907.571289	5146.434082
906.424805	5018.720215
905.279297	5102.674805
904.132813	5027.373047
902.986328	5098.203613
901.839844	5033.836426
900.692383	5202.714844
899.545898	5003.246582
898.398438	5063.124512
897.250000	5205.743652
896.102539	5095.691406
894.954102	5170.746582
893.805664	5169.583984
892.656250	5155.364746
891.507813	5258.638184
890.358398	5181.323730
889.208984	5123.615723
888.058594	5085.500977
886.908203	5127.831543
885.758789	5178.834961
884.607422	5064.686035
883.457031	5002.722656
882.305664	4942.958008
881.154297	4987.441895
880.002930	4901.657227
878.850586	5015.579590
877.698242	4936.335938
876.545898	4898.344727
875.393555	5027.371094
874.240234	4969.860352
873.086914	4983.915039
871.933594	4958.950195
870.780273	5020.671387
869.625977	4945.881348
868.471680	4979.419922
867.317383	5015.108398
866.162109	4923.049316
865.007813	4943.582520
863.852539	4918.663086
862.696289	5010.581055
861.541016	4823.434082
860.384766	5003.993164
859.228516	4894.762695
858.072266	4952.017578
856.915039	4994.119141
855.757813	4934.655762
854.600586	4981.061523
853.442383	4891.393555
852.285156	4987.445313
851.126953	4802.838379
849.968750	4857.862305
848.809570	5040.159668
847.650391	4941.949219
846.491211	5037.878906
845.332031	4993.615723
844.171875	5009.730469
843.012695	4931.010742
841.851563	4951.440918
840.691406	4885.693848
839.530273	4847.974121
838.369141	4821.037598
837.208008	4787.654297
836.046875	4836.070801
834.884766	4867.250977
833.722656	4859.693848
832.560547	4832.782715
831.397461	4921.998535
830.234375	4955.279297
829.071289	4829.495605
827.908203	5013.198242
826.744141	4823.007813
825.580078	5000.184570
824.416016	4906.713379
823.251953	4834.752441
822.086914	4820.776855
820.921875	4836.849121
819.756836	4831.459961
818.590820	4903.290039
817.425781	4863.576660
816.259766	4847.463867
815.092773	4848.505859
813.926758	4898.835449
812.759766	4906.291992
811.592773	4883.756348
810.424805	4998.287598
809.257813	4862.266602
808.089844	4816.209473
806.920898	4821.534180
805.752930	4818.297852
804.583984	4782.976074
803.415039	4756.224609
802.246094	4894.119141
801.076172	4833.151855
799.906250	4844.874512
798.736328	4833.087891
797.566406	4789.264160
796.395508	4860.786133
795.224609	4919.464355
794.053711	5054.964355
792.881836	5198.938965
791.710938	5142.277344
790.538086	5209.369141
789.366211	5144.199219
788.194336	5221.919922
787.021484	5135.458496
785.848633	5132.155762
784.674805	5020.183594
783.500977	4942.346680
782.327148	4917.791016
781.153320	4950.738770
779.979492	4930.449219
778.804688	4939.965820
777.629883	4845.210938
776.454102	4976.004395
775.279297	5034.421875
774.103516	4924.824219
772.927734	4879.054688
771.750977	4869.437988
770.575195	4813.076172
769.398438	4994.683105
768.220703	4923.449707
767.043945	4932.942383
765.866211	4921.199707
764.688477	5036.814941
763.510742	4874.386230
762.332031	5038.755371
761.153320	5054.571777
759.974609	5140.360840
758.794922	5071.341309
757.616211	5140.128906
756.436523	5122.000000
755.255859	5254.304199
754.076172	5337.829102
752.895508	5366.255371
751.714844	5578.865723
750.533203	5685.541992
749.352539	5713.867676
748.170898	5936.830078
746.988281	6284.491211
745.806641	6676.403320
744.624023	7116.764648
743.441406	7707.004883
742.258789	8755.569336
741.075195	10266.368164
739.891602	12247.532227
738.708008	15178.136719
737.523438	18155.958984
736.339844	21571.486328
735.155273	24616.119141
733.969727	26509.429688
732.785156	27159.394531
731.599609	26313.789063
730.414063	24426.970703
729.227539	21870.666016
728.041992	18714.886719
726.855469	15718.583008
725.667969	13334.557617
724.481445	11115.898438
723.293945	9822.615234
722.106445	8746.750977
720.918945	8050.214844
719.730469	7448.683594
718.541992	6950.508301
717.353516	6534.584961
716.164063	6253.424805
714.975586	5955.575684
713.786133	5765.051270
712.595703	5753.220215
711.406250	5499.806152
710.215820	5416.630859
709.025391	5293.597656
707.833984	5321.770996
706.642578	5207.210449
705.451172	5101.095215
704.259766	5007.615723
703.068359	5155.378418
701.875977	5001.118652
700.683594	5127.850098
699.490234	5044.928711
698.297852	5098.249512
697.104492	5025.847168
695.910156	5156.643555
694.716797	5199.431152
693.522461	5302.910645
692.328125	5245.177734
691.132813	5298.376465
689.938477	5489.628418
688.743164	5383.784180
687.547852	5474.553711
686.351563	5379.213867
685.155273	5334.081543
683.958984	5301.507324
682.762695	5229.253418
681.565430	5255.201660
680.368164	5122.432129
679.170898	5137.953613
677.973633	5128.420410
676.775391	5116.804199
675.577148	5157.350586
674.378906	5087.329590
673.179688	5298.861816
671.980469	5180.887207
670.781250	5190.114258
669.581055	5122.232422
668.381836	5118.967773
667.181641	5263.592773
665.980469	5285.285645
664.780273	5286.147949
663.579102	5320.313965
662.377930	5379.435547
661.175781	5305.375488
659.973633	5480.955566
658.771484	5440.178711
657.569336	5490.900391
656.367188	5562.384277
655.164063	5623.444336
653.960938	5580.592773
652.756836	5525.297363
651.552734	5596.705566
650.348633	5780.196777
649.144531	5619.029785
647.939453	5831.483398
646.735352	5842.584961
645.529297	5747.891602
644.324219	5854.402344
643.118164	5921.469727
641.912109	5911.810059
640.706055	6014.062988
639.499023	6074.830078
638.292969	6046.497559
637.084961	6206.633789
635.877930	6116.168945
634.669922	6433.533203
633.461914	6438.254395
632.253906	6635.393066
631.044922	6664.886719
629.836914	6981.829590
628.626953	7040.174805
627.417969	7108.828613
626.208008	7051.385254
624.998047	6921.651367
623.788086	7079.108398
622.577148	6990.731445
621.366211	6733.087402
620.155273	6653.087891
618.944336	6602.017578
617.732422	6425.109375
616.520508	6291.602051
615.308594	6151.968750
614.095703	6098.998047
612.882813	5782.193848
611.669922	5589.190430
610.457031	5540.506348
609.243164	5432.105957
608.029297	5338.171387
606.815430	5330.758301
605.600586	5370.694336
604.385742	5227.445313
603.170898	5092.492188
601.955078	5072.798828
600.740234	5182.681152
599.524414	5070.449219
598.307617	5095.998047
597.091797	5020.830566
595.875000	5114.184570
594.658203	5112.999512
593.440430	5025.556641
592.222656	5003.859375
591.004883	5129.974121
589.787109	5157.518066
588.568359	5100.922363
587.349609	5042.301270
586.130859	4983.707031
584.912109	5023.560547
583.692383	5114.644043
582.472656	5004.835938
581.251953	5091.783203
580.032227	5256.533691
578.811523	5183.632813
577.589844	5190.621582
576.369141	5306.103027
575.147461	5210.727539
573.925781	5238.165527
572.703125	5310.595215
571.481445	5456.618652
570.258789	5336.758789
569.035156	5388.671875
567.812500	5471.217285
566.588867	5510.814453
565.365234	5552.435547
564.140625	5606.291504
562.916992	5598.865234
561.692383	5530.199707
560.466797	5547.285156
559.242188	5643.940918
558.016602	5628.351563
556.791016	5651.519531
555.564453	5584.958984
554.337891	5418.538086
553.111328	5527.338379
551.884766	5603.485840
550.657227	5647.002930
549.429688	5637.545898
548.202148	5713.613770
546.974609	5553.500000
545.746094	5686.538574
544.517578	5795.097656
543.288086	5751.032227
542.058594	5849.355957
540.829102	5998.468262
539.599609	5948.286133
538.370117	6089.175781
537.139648	5994.291992
535.909180	5885.231445
534.677734	5849.337891
533.446289	5852.041504
532.214844	5724.817871
530.983398	5644.334473
529.750977	5523.305176
528.519531	5505.793457
527.286133	5382.823730
526.053711	5440.377930
524.820313	5293.152832
523.586914	5462.173340
522.353516	5543.983887
521.119141	5585.239258
519.884766	5577.866211
518.650391	5339.658203
517.415039	5293.880859
516.179688	5318.962891
514.944336	5279.281738
513.708984	5265.917969
