#Wave		#Intensity
1585.210938	23989.888672
1584.209961	24049.832031
1583.208984	23964.941406
1582.208008	24222.119141
1581.206055	23885.121094
1580.204102	24301.925781
1579.202148	23885.207031
1578.200195	23832.861328
1577.198242	23783.033203
1576.195313	23763.144531
1575.192383	23593.685547
1574.189453	23656.095703
1573.186523	23651.195313
1572.182617	23451.964844
1571.178711	23494.435547
1570.174805	23327.691406
1569.170898	23133.628906
1568.166992	23350.392578
1567.162109	23233.558594
1566.158203	23475.093750
1565.153320	23102.031250
1564.147461	23301.208984
1563.142578	23216.804688
1562.136719	23142.380859
1561.130859	23440.853516
1560.125000	23503.101563
1559.119141	23674.652344
1558.113281	24049.837891
1557.106445	24489.443359
1556.099609	24745.107422
1555.092773	24975.839844
1554.084961	25333.066406
1553.078125	25610.730469
1552.070313	25970.156250
1551.062500	26483.230469
1550.054688	26661.277344
1549.045898	27112.003906
1548.038086	27572.458984
1547.029297	28439.210938
1546.020508	28634.044922
1545.011719	28979.929688
1544.001953	29868.140625
1542.992188	30334.974609
1541.982422	31051.689453
1540.972656	31542.835938
1539.962891	31959.529297
1538.952148	32079.109375
1537.942383	32292.650391
1536.931641	32642.142578
1535.919922	32388.089844
1534.909180	32589.068359
1533.897461	31939.623047
1532.886719	31745.183594
1531.874023	31185.130859
1530.862305	30771.060547
1529.850586	29714.996094
1528.837891	29521.171875
1527.825195	28732.435547
1526.812500	28134.085938
1525.799805	27047.353516
1524.786133	26713.599609
1523.772461	26251.710938
1522.758789	25868.931641
1521.745117	25195.349609
1520.731445	25412.005859
1519.716797	25000.058594
1518.702148	24617.851563
1517.687500	24400.871094
1516.672852	24378.576172
1515.657227	24427.707031
1514.642578	24311.849609
1513.626953	24397.896484
1512.610352	24141.802734
1511.594727	24569.882813
1510.579102	24392.582031
1509.562500	24114.507813
1508.545898	24180.828125
1507.529297	24414.308594
1506.511719	24111.816406
1505.494141	24458.261719
1504.477539	24239.427734
1503.458984	24175.447266
1502.441406	24362.015625
1501.423828	24059.841797
1500.405273	24192.341797
1499.386719	24059.691406
1498.368164	24044.890625
1497.348633	24496.269531
1496.330078	23855.855469
1495.310547	23931.847656
1494.291016	24137.761719
1493.271484	24142.566406
1492.250977	24206.191406
1491.231445	24593.255859
1490.210938	24475.460938
1489.190430	24357.710938
1488.168945	24271.845703
1487.148438	24609.601563
1486.126953	24518.822266
1485.105469	24592.058594
1484.083984	24746.013672
1483.061523	24921.919922
1482.040039	25002.361328
1481.017578	25273.511719
1479.995117	25392.962891
1478.971680	25500.140625
1477.949219	25599.941406
1476.925781	26195.708984
1475.902344	26664.199219
1474.878906	26976.179688
1473.855469	27322.216797
1472.831055	28109.998047
1471.806641	28504.470703
1470.782227	29335.601563
1469.757813	29744.292969
1468.733398	30726.058594
1467.708008	31948.863281
1466.682617	32849.296875
1465.657227	33646.964844
1464.631836	34907.394531
1463.605469	36016.214844
1462.579102	37124.574219
1461.552734	38914.500000
1460.526367	39651.625000
1459.500000	40437.140625
1458.472656	41336.738281
1457.445313	42155.648438
1456.417969	42791.714844
1455.390625	42532.257813
1454.362305	42311.820313
1453.334961	41896.929688
1452.306641	40932.742188
1451.277344	40372.460938
1450.249023	38898.636719
1449.219727	38086.312500
1448.191406	36698.589844
1447.162109	35338.160156
1446.131836	34157.980469
1445.102539	33109.390625
1444.072266	32476.287109
1443.041992	31540.105469
1442.011719	30754.736328
1440.981445	30238.947266
1439.950195	29201.949219
1438.918945	29127.988281
1437.887695	28586.185547
1436.856445	27918.574219
1435.825195	27532.330078
1434.792969	27647.742188
1433.760742	27118.800781
1432.728516	26742.646484
1431.696289	26494.966797
1430.663086	26336.955078
1429.629883	26191.107422
1428.596680	25934.015625
1427.563477	25732.669922
1426.530273	25446.751953
1425.496094	24822.410156
1424.461914	24691.527344
1423.427734	24618.708984
1422.393555	24519.337891
1421.358398	24156.646484
1420.323242	23907.638672
1419.288086	23849.529297
1418.252930	23868.710938
1417.217773	23839.601563
1416.181641	23547.416016
1415.145508	23706.607422
1414.109375	24010.488281
1413.073242	23937.949219
1412.036133	24128.304688
1411.000000	24058.179688
1409.962891	24593.146484
1408.924805	24788.064453
1407.887695	24920.248047
1406.849609	25693.199219
1405.812500	26733.183594
1404.773438	27016.585938
1403.735352	27651.380859
1402.697266	28358.121094
1401.658203	28992.367188
1400.619141	29404.984375
1399.580078	29973.792969
1398.540039	29943.492188
1397.500977	29850.683594
1396.460938	30284.408203
1395.420898	30306.935547
1394.380859	29918.521484
1393.339844	29897.865234
1392.298828	29579.355469
1391.257813	29664.445313
1390.216797	29579.019531
1389.175781	29757.691406
1388.133789	29708.279297
1387.091797	29807.660156
1386.049805	30216.478516
1385.007813	31191.191406
1383.964844	31647.509766
1382.922852	32348.189453
1381.879883	32979.058594
1380.835938	33741.472656
1379.792969	34287.917969
1378.749023	35013.804688
1377.706055	35729.800781
1376.661133	35688.812500
1375.617188	35942.308594
1374.573242	35788.789063
1373.528320	36463.335938
1372.483398	36032.226563
1371.438477	36039.046875
1370.392578	35610.593750
1369.347656	35572.066406
1368.301758	35727.183594
1367.255859	35279.937500
1366.208984	35047.937500
1365.163086	34493.507813
1364.116211	34782.472656
1363.069336	34507.730469
1362.022461	34366.804688
1360.974609	34362.000000
1359.927734	34419.246094
1358.879883	34326.140625
1357.832031	34087.550781
1356.783203	34340.386719
1355.735352	34757.652344
1354.686523	34843.351563
1353.637695	35512.992188
1352.588867	35820.117188
1351.539063	36653.664063
1350.490234	37396.339844
1349.440430	38291.125000
1348.390625	39404.589844
1347.339844	40493.781250
1346.290039	41956.187500
1345.239258	43168.117188
1344.188477	43803.800781
1343.137695	44957.746094
1342.085938	46020.835938
1341.034180	47012.148438
1339.982422	47848.531250
1338.930664	48677.429688
1337.878906	49330.144531
1336.826172	49623.867188
1335.773438	50140.722656
1334.720703	50284.546875
1333.667969	50250.246094
1332.614258	50282.421875
1331.561523	49360.589844
1330.507813	49257.691406
1329.453125	48595.011719
1328.399414	47451.171875
1327.344727	46367.089844
1326.290039	45465.996094
1325.235352	44752.515625
1324.180664	44233.640625
1323.125000	43596.523438
1322.070313	43298.386719
1321.014648	43410.054688
1319.958008	42861.109375
1318.902344	42444.945313
1317.845703	42267.988281
1316.789063	41083.125000
1315.732422	40570.601563
1314.675781	40178.910156
1313.618164	39130.015625
1312.560547	38135.929688
1311.502930	37045.355469
1310.445313	36288.437500
1309.386719	34889.195313
1308.329102	34397.605469
1307.270508	33417.359375
1306.210938	32111.685547
1305.152344	31408.525391
1304.092773	30929.875000
1303.033203	30274.449219
1301.973633	29692.431641
1300.914063	29077.634766
1299.853516	28913.505859
1298.792969	28289.699219
1297.732422	28198.873047
1296.671875	27881.843750
1295.611328	27760.507813
1294.549805	27721.669922
1293.488281	27527.406250
1292.426758	27728.808594
1291.364258	27485.181641
1290.302734	27615.892578
1289.240234	27287.671875
1288.177734	27107.808594
1287.114258	27313.781250
1286.051758	27176.316406
1284.988281	27302.242188
1283.924805	27223.599609
1282.861328	27452.867188
1281.796875	27928.757813
1280.732422	27904.058594
1279.667969	28130.681641
1278.603516	28035.500000
1277.539063	28261.996094
1276.473633	28547.076172
1275.408203	29484.423828
1274.342773	29672.923828
1273.277344	29739.361328
1272.210938	29855.019531
1271.145508	29935.455078
1270.079102	29968.968750
1269.011719	29798.560547
1267.945313	29527.460938
1266.877930	29315.041016
1265.810547	29182.347656
1264.743164	28232.429688
1263.674805	27884.621094
1262.607422	27448.005859
1261.539063	26894.560547
1260.470703	26425.580078
1259.401367	25783.687500
1258.333008	25694.023438
1257.263672	25120.365234
1256.194336	24820.472656
1255.125000	24733.400391
1254.054688	24286.494141
1252.985352	24075.744141
1251.915039	23689.892578
1250.843750	23308.876953
1249.773438	23535.074219
1248.702148	23074.880859
1247.630859	22631.218750
1246.559570	22670.744141
1245.488281	22465.300781
1244.416016	22348.574219
1243.343750	22390.460938
1242.271484	22318.091797
1241.199219	22166.501953
1240.125977	22061.582031
1239.053711	22063.878906
1237.980469	22077.820313
1236.906250	22289.708984
1235.833008	22240.726563
1234.758789	21879.826172
1233.684570	21998.519531
1232.610352	22345.199219
1231.536133	22275.300781
1230.460938	22070.529297
1229.385742	22126.289063
1228.310547	22465.662109
1227.235352	22432.982422
1226.159180	22260.878906
1225.083008	22235.222656
1224.006836	22490.652344
1222.930664	22272.191406
1221.853516	22571.617188
1220.777344	22569.125000
1219.700195	22740.701172
1218.622070	22761.375000
1217.544922	22823.796875
1216.466797	23280.500000
1215.388672	23212.917969
1214.310547	23504.726563
1213.232422	23763.958984
1212.153320	24027.710938
1211.074219	24240.376953
1209.995117	24304.691406
1208.916016	24686.271484
1207.835938	24789.824219
1206.755859	24603.955078
1205.675781	24844.033203
1204.595703	24561.039063
1203.514648	24740.867188
1202.434570	24913.679688
1201.353516	24730.283203
1200.271484	24551.589844
1199.190430	24562.515625
1198.108398	24476.371094
1197.026367	24235.455078
1195.944336	24188.683594
1194.862305	23809.353516
1193.779297	23494.837891
1192.696289	23279.724609
1191.613281	22949.294922
1190.530273	22796.691406
1189.446289	22408.828125
1188.362305	22431.703125
1187.278320	21914.937500
1186.194336	21824.929688
1185.109375	21642.755859
1184.024414	21382.298828
1182.939453	21214.117188
1181.854492	20958.468750
1180.768555	20877.966797
1179.683594	20965.591797
1178.597656	20562.816406
1177.510742	20427.207031
1176.424805	20213.414063
1175.337891	20565.675781
1174.250977	19963.210938
1173.164063	20232.582031
1172.077148	20087.984375
1170.989258	20221.585938
1169.901367	20005.804688
1168.813477	19957.845703
1167.724609	20098.277344
1166.636719	20183.525391
1165.547852	20206.738281
1164.458984	20158.769531
1163.369141	20452.810547
1162.280273	20361.208984
1161.190430	20574.777344
1160.100586	20792.839844
1159.010742	21022.273438
1157.919922	21061.306641
1156.829102	21230.980469
1155.738281	21382.246094
1154.647461	21285.986328
1153.555664	21606.689453
1152.464844	21576.835938
1151.373047	21361.521484
1150.280273	21404.990234
1149.188477	21565.166016
1148.095703	21526.187500
1147.002930	21459.771484
1145.910156	21615.251953
1144.817383	21471.087891
1143.723633	21169.228516
1142.629883	21358.953125
1141.536133	21230.929688
1140.441406	20753.376953
1139.347656	20602.693359
1138.252930	20657.621094
1137.158203	20554.970703
1136.062500	20340.500000
1134.967773	20459.351563
1133.872070	20418.416016
1132.776367	20445.937500
1131.679688	20318.345703
1130.583984	20256.937500
1129.487305	20366.550781
1128.390625	20058.976563
1127.292969	20120.722656
1126.196289	20175.605469
1125.098633	20212.238281
1124.000977	20180.529297
1122.903320	20346.929688
1121.804688	20176.337891
1120.706055	19932.986328
1119.607422	19981.001953
1118.508789	19967.568359
1117.409180	19817.669922
1116.310547	20058.964844
1115.210938	19961.398438
1114.110352	19757.041016
1113.010742	19823.201172
1111.910156	19848.435547
1110.809570	19750.992188
1109.708984	19873.880859
1108.607422	19553.958984
1107.506836	19887.949219
1106.405273	19568.160156
1105.303711	19327.923828
1104.201172	19053.761719
1103.098633	19242.406250
1101.996094	19315.320313
1100.893555	19082.144531
1099.791016	19209.457031
1098.687500	18912.949219
1097.583984	18933.755859
1096.480469	19029.300781
1095.376953	19158.771484
1094.272461	18939.507813
1093.167969	19256.820313
1092.063477	19334.099609
1090.958008	19228.068359
1089.853516	19701.195313
1088.748047	19525.015625
1087.642578	19769.490234
1086.536133	19918.906250
1085.430664	20185.787109
1084.324219	20520.339844
1083.217773	20771.154297
1082.110352	20994.753906
1081.003906	21001.462891
1079.896484	21367.148438
1078.789063	21385.056641
1077.680664	21689.560547
1076.573242	21811.175781
1075.464844	21716.181641
1074.356445	21808.414063
1073.247070	21666.109375
1072.138672	21812.410156
1071.029297	21514.650391
1069.919922	21514.455078
1068.809570	21329.527344
1067.700195	21223.507813
1066.589844	20910.367188
1065.479492	20691.917969
1064.368164	20595.105469
1063.257813	20376.816406
1062.146484	20194.619141
1061.035156	20008.000000
1059.922852	19816.962891
1058.811523	19891.316406
1057.699219	19563.263672
1056.586914	19320.755859
1055.473633	19204.177734
1054.361328	19366.203125
1053.248047	19164.316406
1052.134766	19207.269531
1051.021484	19086.322266
1049.907227	18974.402344
1048.792969	18954.533203
1047.678711	19156.771484
1046.564453	19056.119141
1045.449219	19152.847656
1044.333984	19191.240234
1043.218750	19059.261719
1042.103516	19227.632813
1040.987305	19156.193359
1039.871094	19160.945313
1038.754883	19118.664063
1037.638672	19188.349609
1036.521484	19240.093750
1035.404297	19461.904297
1034.287109	19289.810547
1033.169922	19124.500000
1032.051758	19156.078125
1030.933594	19545.410156
1029.815430	19605.941406
1028.697266	19436.230469
1027.578125	19474.408203
1026.458984	19599.697266
1025.339844	19584.212891
1024.220703	19622.328125
1023.100586	19669.355469
1021.980469	19772.164063
1020.860352	19698.625000
1019.740234	20013.335938
1018.619141	20000.001953
1017.498047	20044.654297
1016.376953	19832.875000
1015.255859	19877.542969
1014.133789	19980.132813
1013.011719	19964.583984
1011.889648	19590.378906
1010.767578	20038.177734
1009.644531	20082.740234
1008.521484	20098.341797
1007.398438	20007.099609
1006.274414	19924.796875
1005.151367	19973.787109
1004.027344	19784.759766
1002.902344	19829.310547
1001.778320	19658.181641
1000.653320	19929.458984
999.528320	19680.599609
998.403320	19825.107422
997.278320	20049.515625
996.152344	19907.388672
995.026367	19798.626953
993.900391	20040.646484
992.773438	20269.240234
991.646484	20211.500000
990.519531	20550.869141
989.392578	20730.398438
988.265625	20976.369141
987.137695	21118.035156
986.009766	21077.892578
984.881836	21328.048828
983.752930	21598.031250
982.624023	21203.416016
981.495117	21559.664063
980.366211	21393.263672
979.236328	21698.398438
978.106445	21158.048828
976.976563	21020.605469
975.846680	20507.185547
974.715820	20414.171875
973.585938	20573.251953
972.454102	20223.845703
971.323242	20097.800781
970.191406	19828.193359
969.060547	19916.566406
967.927734	19801.712891
966.795898	19797.310547
965.663086	19803.945313
964.530273	19980.521484
963.397461	19865.748047
962.264648	19841.472656
961.130859	20075.261719
959.997070	20134.742188
958.863281	19956.095703
957.729492	20145.615234
956.594727	19969.246094
955.459961	20094.783203
954.325195	19748.898438
953.189453	19828.179688
952.053711	19808.349609
950.917969	19577.214844
949.782227	19608.060547
948.646484	19333.066406
947.509766	19500.332031
946.373047	19245.271484
945.235352	19375.101563
944.098633	19115.783203
942.960938	19115.914063
941.823242	19234.693359
940.685547	19414.925781
939.546875	19608.255859
938.408203	19614.855469
937.269531	19704.873047
936.129883	20003.351563
934.991211	19994.494141
933.851563	20058.033203
932.711914	20492.214844
931.571289	20715.689453
930.431641	20520.324219
929.291016	20605.601563
928.149414	20430.066406
927.008789	20999.503906
925.867188	20909.380859
924.725586	20584.978516
923.583984	20867.181641
922.441406	20464.128906
921.299805	20308.546875
920.157227	20087.394531
919.013672	20032.583984
917.871094	19625.697266
916.727539	19243.042969
915.583984	19079.154297
914.439453	19175.410156
913.295898	19133.966797
912.151367	19210.503906
911.006836	18644.906250
909.861328	18765.185547
908.716797	18496.828125
907.571289	18889.902344
906.424805	18909.666016
905.279297	18514.921875
904.132813	18506.404297
902.986328	18604.736328
901.839844	18788.046875
900.692383	18419.833984
899.545898	18352.501953
898.398438	18592.384766
897.250000	18692.757813
896.102539	18631.937500
894.954102	18588.562500
893.805664	18664.919922
892.656250	18436.576172
891.507813	18619.539063
890.358398	18215.115234
889.208984	18672.056641
888.058594	18526.531250
886.908203	18452.802734
885.758789	18372.585938
884.607422	18196.802734
883.457031	18412.103516
882.305664	18232.044922
881.154297	18384.271484
880.002930	18234.687500
878.850586	18132.914063
877.698242	18287.224609
876.545898	18382.892578
875.393555	18116.320313
874.240234	18326.902344
873.086914	17936.890625
871.933594	18299.132813
870.780273	17874.628906
869.625977	18009.246094
868.471680	17935.875000
867.317383	17936.158203
866.162109	18031.697266
865.007813	17856.634766
863.852539	18101.458984
862.696289	17766.361328
861.541016	18147.359375
860.384766	17955.123047
859.228516	17970.525391
858.072266	17750.314453
856.915039	17817.617188
855.757813	17986.431641
854.600586	17682.119141
853.442383	17723.472656
852.285156	17972.076172
851.126953	18110.478516
849.968750	18028.689453
848.809570	18173.486328
847.650391	17858.750000
846.491211	17964.695313
845.332031	18040.408203
844.171875	17997.521484
843.012695	17937.412109
841.851563	18084.177734
840.691406	17886.205078
839.530273	18252.589844
838.369141	17953.466797
837.208008	18125.921875
836.046875	18207.902344
834.884766	18147.830078
833.722656	17883.414063
832.560547	17971.843750
831.397461	18232.253906
830.234375	17980.892578
829.071289	18140.160156
827.908203	18234.890625
826.744141	18063.183594
825.580078	18114.929688
824.416016	18280.458984
823.251953	18278.457031
822.086914	18233.525391
820.921875	18141.404297
819.756836	18064.339844
818.590820	18176.062500
817.425781	18015.390625
816.259766	18217.117188
815.092773	18187.255859
813.926758	18183.123047
812.759766	18273.259766
811.592773	18187.708984
810.424805	18076.498047
809.257813	18230.824219
808.089844	18068.277344
806.920898	17856.583984
805.752930	17972.335938
804.583984	17651.664063
803.415039	18043.287109
802.246094	18199.537109
801.076172	18037.210938
799.906250	17930.523438
798.736328	18031.136719
797.566406	18086.841797
796.395508	18007.974609
795.224609	18187.498047
794.053711	18381.882813
792.881836	18828.011719
791.710938	19022.158203
790.538086	19337.808594
789.366211	19518.951172
788.194336	19842.869141
787.021484	20332.917969
785.848633	20200.404297
784.674805	19982.716797
783.500977	20099.587891
782.327148	19828.771484
781.153320	19881.740234
779.979492	19251.318359
778.804688	19355.470703
777.629883	19251.042969
776.454102	19048.798828
775.279297	18846.646484
774.103516	18657.343750
772.927734	18757.253906
771.750977	18916.630859
770.575195	18997.308594
769.398438	19343.509766
768.220703	19243.509766
767.043945	19491.810547
765.866211	19523.447266
764.688477	20017.785156
763.510742	20087.480469
762.332031	20365.056641
761.153320	20964.912109
759.974609	21477.546875
758.794922	22284.642578
757.616211	23341.484375
756.436523	24226.189453
755.255859	26091.433594
754.076172	27801.193359
752.895508	30469.486328
751.714844	33712.441406
750.533203	37127.476563
749.352539	41220.265625
748.170898	45581.988281
746.988281	49205.597656
745.806641	52662.589844
744.624023	54735.234375
743.441406	56620.910156
742.258789	57987.945313
741.075195	59986.097656
739.891602	61805.886719
738.708008	64323.875000
737.523438	66939.937500
736.339844	68925.742188
735.155273	69142.085938
733.969727	68505.906250
732.785156	65916.640625
731.599609	61512.726563
730.414063	56590.027344
729.227539	50480.660156
728.041992	44401.492188
726.855469	39311.207031
725.667969	34214.832031
724.481445	30995.203125
723.293945	27993.925781
722.106445	26177.101563
720.918945	24565.255859
719.730469	23183.501953
718.541992	22242.046875
717.353516	21456.658203
716.164063	20974.416016
714.975586	20584.892578
713.786133	20008.490234
712.595703	19734.933594
711.406250	19425.787109
710.215820	19265.900391
709.025391	19156.482422
707.833984	19233.951172
706.642578	18990.261719
705.451172	18973.304688
704.259766	19017.191406
703.068359	19027.500000
701.875977	19088.126953
700.683594	19402.392578
699.490234	20005.751953
698.297852	20462.148438
697.104492	21171.826172
695.910156	22073.869141
694.716797	22778.660156
693.522461	23575.238281
692.328125	23984.234375
691.132813	24206.800781
689.938477	24006.664063
688.743164	23806.617188
687.547852	23665.210938
686.351563	23304.351563
685.155273	22780.625000
683.958984	22169.371094
682.762695	21610.625000
681.565430	21118.976563
680.368164	20571.169922
679.170898	20307.546875
677.973633	20152.583984
676.775391	20037.337891
675.577148	19986.820313
674.378906	19802.832031
673.179688	19719.021484
671.980469	19681.117188
670.781250	19709.927734
669.581055	19757.480469
668.381836	19454.994141
667.181641	19310.949219
665.980469	19189.876953
664.780273	19306.203125
663.579102	19051.968750
662.377930	19226.539063
661.175781	19113.914063
659.973633	19334.150391
658.771484	19169.558594
657.569336	19466.603516
656.367188	19798.845703
655.164063	20234.839844
653.960938	20371.449219
652.756836	20883.962891
651.552734	21113.806641
650.348633	21403.751953
649.144531	22079.652344
647.939453	22248.873047
646.735352	22478.183594
645.529297	22856.736328
644.324219	22853.529297
643.118164	22879.349609
641.912109	22944.539063
640.706055	22682.259766
639.499023	22648.011719
638.292969	22010.990234
637.084961	21972.767578
635.877930	21427.294922
634.669922	21331.261719
633.461914	20860.689453
632.253906	21106.218750
631.044922	20648.324219
629.836914	20395.378906
628.626953	20322.431641
627.417969	20280.523438
626.208008	20065.035156
624.998047	19965.349609
623.788086	19803.738281
622.577148	19270.462891
621.366211	19363.046875
620.155273	18801.216797
618.944336	18803.058594
617.732422	18398.425781
616.520508	18144.566406
615.308594	17981.566406
614.095703	17855.753906
612.882813	17987.673828
611.669922	17781.539063
610.457031	17629.072266
609.243164	17437.533203
608.029297	17373.771484
606.815430	17377.984375
605.600586	17396.603516
604.385742	17227.931641
603.170898	17285.667969
601.955078	17600.513672
600.740234	17641.683594
599.524414	17728.066406
598.307617	17612.953125
597.091797	17649.976563
595.875000	17719.857422
594.658203	17699.318359
593.440430	17933.453125
592.222656	17836.900391
591.004883	17705.492188
589.787109	17713.703125
588.568359	17570.072266
587.349609	17500.355469
586.130859	17229.681641
584.912109	17338.460938
583.692383	17471.789063
582.472656	17398.056641
581.251953	17516.962891
580.032227	17809.939453
578.811523	17656.302734
577.589844	18074.009766
576.369141	18141.468750
575.147461	18370.578125
573.925781	18873.765625
572.703125	19127.144531
571.481445	19484.710938
570.258789	19991.375000
569.035156	20377.193359
567.812500	20474.656250
566.588867	21009.341797
565.365234	21353.792969
564.140625	21553.076172
562.916992	21666.505859
561.692383	21753.343750
560.466797	21731.968750
559.242188	21800.384766
558.016602	21275.126953
556.791016	20856.167969
555.564453	20506.728516
554.337891	19786.429688
553.111328	19343.646484
551.884766	18868.464844
550.657227	18627.775391
549.429688	18372.941406
548.202148	18083.607422
546.974609	18063.125000
545.746094	17769.923828
544.517578	17700.687500
543.288086	17607.068359
542.058594	17631.455078
540.829102	17598.896484
539.599609	17468.771484
538.370117	17480.974609
537.139648	17464.726563
535.909180	17251.427734
534.677734	17304.291016
533.446289	17332.763672
532.214844	17117.611328
530.983398	16945.181641
529.750977	17144.160156
528.519531	17061.062500
527.286133	16961.775391
526.053711	16738.843750
524.820313	17081.617188
523.586914	16929.697266
522.353516	16907.529297
521.119141	16911.707031
519.884766	16903.730469
518.650391	17013.199219
517.415039	16713.681641
516.179688	16792.783203
514.944336	16744.367188
513.708984	16675.744141
