#Wave		#Intensity
2109.224609	8764.374023
2107.712891	8951.272461
2106.201172	8815.393555
2104.687500	8815.140625
2103.175781	8862.822266
2101.662109	8803.068359
2100.150391	8761.514648
2098.636719	8850.472656
2097.123047	8680.111328
2095.607422	8740.979492
2094.093750	8839.789063
2092.578125	8743.809570
2091.064453	8765.023438
2089.548828	8763.133789
2088.033203	8746.400391
2086.517578	8696.694336
2085.000000	8660.199219
2083.484375	8747.339844
2081.966797	8656.468750
2080.449219	8717.211914
2078.931641	8575.323242
2077.414063	8640.998047
2075.894531	8630.906250
2074.376953	8566.496094
2072.857422	8691.378906
2071.337891	8603.948242
2069.818359	8658.030273
2068.298828	8524.591797
2066.777344	8603.333984
2065.257813	8515.997070
2063.736328	8410.617188
2062.214844	8622.441406
2060.693359	8549.943359
2059.171875	8600.670898
2057.648438	8636.596680
2056.126953	8569.068359
2054.603516	8350.545898
2053.080078	8539.133789
2051.556641	8625.908203
2050.033203	8561.720703
2048.507813	8720.619141
2046.984375	8597.406250
2045.458984	8531.625977
2043.933594	8508.490234
2042.408203	8644.322266
2040.882813	8499.931641
2039.355469	8445.695313
2037.830078	8555.250000
2036.302734	8636.922852
2034.775391	8643.259766
2033.248047	8603.768555
2031.718750	8588.838867
2030.191406	8567.371094
2028.662109	8519.743164
2027.134766	8655.281250
2025.605469	8635.448242
2024.076172	8504.474609
2022.544922	8551.683594
2021.015625	8602.139648
2019.484375	8458.189453
2017.955078	8441.685547
2016.423828	8469.273438
2014.892578	8490.320313
2013.359375	8545.631836
2011.828125	8581.338867
2010.294922	8628.450195
2008.761719	8504.281250
2007.230469	8520.405273
2005.695313	8362.074219
2004.162109	8432.011719
2002.628906	8514.957031
2001.093750	8591.349609
1999.558594	8343.544922
1998.023438	8602.345703
1996.488281	8564.691406
1994.953125	8564.496094
1993.417969	8443.859375
1991.880859	8557.594727
1990.343750	8700.565430
1988.806641	8612.506836
1987.269531	8724.506836
1985.732422	8795.813477
1984.193359	8681.783203
1982.656250	8655.558594
1981.117188	8700.836914
1979.578125	8765.589844
1978.039063	8727.995117
1976.500000	8664.436523
1974.958984	8760.000000
1973.417969	8766.253906
1971.878906	8876.359375
1970.337891	8754.416016
1968.796875	8673.076172
1967.253906	8638.799805
1965.712891	8756.945313
1964.169922	8639.993164
1962.626953	8863.431641
1961.083984	8856.688477
1959.541016	8768.949219
1957.998047	8912.855469
1956.455078	8706.932617
1954.910156	8773.080078
1953.365234	8777.693359
1951.820313	8707.863281
1950.275391	8660.714844
1948.730469	8797.989258
1947.183594	8817.146484
1945.638672	8797.491211
1944.091797	8768.144531
1942.544922	8714.566406
1940.998047	8795.127930
1939.449219	8676.946289
1937.902344	8788.168945
1936.353516	8649.044922
1934.804688	8668.201172
1933.255859	8748.685547
1931.707031	8624.182617
1930.158203	8536.841797
1928.607422	8599.557617
1927.058594	8544.514648
1925.507813	8573.340820
1923.957031	8544.119141
1922.406250	8613.227539
1920.853516	8464.764648
1919.302734	8522.582031
1917.750000	8561.045898
1916.197266	8539.909180
1914.644531	8732.916992
1913.091797	8505.709961
1911.539063	8540.924805
1909.984375	8449.011719
1908.431641	8624.179688
1906.876953	8543.545898
1905.322266	8501.537109
1903.767578	8440.254883
1902.210938	8534.909180
1900.656250	8484.894531
1899.099609	8502.378906
1897.542969	8555.195313
1895.986328	8538.931641
1894.429688	8646.308594
1892.873047	8490.373047
1891.314453	8517.466797
1889.755859	8350.390625
1888.199219	8528.303711
1886.640625	8446.303711
1885.080078	8391.599609
1883.521484	8574.199219
1881.960938	8663.752930
1880.402344	8599.421875
1878.841797	8608.819336
1877.281250	8550.933594
1875.720703	8539.516602
1874.158203	8505.687500
1872.597656	8446.258789
1871.035156	8452.476563
1869.472656	8682.719727
1867.910156	8472.902344
1866.347656	8463.114258
1864.783203	8573.270508
1863.220703	8475.527344
1861.656250	8601.618164
1860.091797	8620.577148
1858.527344	8572.418945
1856.962891	8624.922852
1855.396484	8677.404297
1853.832031	8614.892578
1852.265625	8638.616211
1850.699219	8595.291992
1849.132813	8628.583984
1847.566406	8663.458008
1845.998047	8650.461914
1844.431641	8655.014648
1842.863281	8603.757813
1841.294922	8550.928711
1839.726563	8603.311523
1838.156250	8641.331055
1836.587891	8658.624023
1835.017578	8601.047852
1833.449219	8564.197266
1831.878906	8578.310547
1830.306641	8684.739258
1828.736328	8724.283203
1827.166016	8582.423828
1825.593750	8725.371094
1824.021484	8642.416992
1822.449219	8605.609375
1820.876953	8610.151367
1819.304688	8549.524414
1817.730469	8770.191406
1816.158203	8715.911133
1814.583984	8798.256836
1813.009766	8591.536133
1811.435547	8657.995117
1809.859375	8616.481445
1808.285156	8736.867188
1806.708984	8700.113281
1805.132813	8657.030273
1803.556641	8598.103516
1801.980469	8678.746094
1800.404297	8798.989258
1798.826172	8654.474609
1797.248047	8589.257813
1795.671875	8752.221680
1794.093750	8793.142578
1792.513672	8778.616211
1790.935547	8874.932617
1789.355469	8855.644531
1787.777344	8879.097656
1786.197266	8913.617188
1784.617188	8883.257813
1783.035156	8848.165039
1781.455078	9085.085938
1779.873047	9059.451172
1778.292969	9092.313477
1776.710938	9104.616211
1775.128906	9192.755859
1773.544922	9081.812500
1771.962891	9229.936523
1770.378906	9180.614258
1768.794922	9226.036133
1767.212891	9306.163086
1765.626953	9253.699219
1764.042969	9228.078125
1762.458984	9330.235352
1760.873047	9282.529297
1759.287109	9482.387695
1757.701172	9409.446289
1756.115234	9234.091797
1754.529297	9430.680664
1752.941406	9466.497070
1751.355469	9330.616211
1749.767578	9355.414063
1748.179688	9621.082031
1746.591797	9601.734375
1745.001953	9442.332031
1743.414063	9701.517578
1741.824219	9656.994141
1740.234375	9628.215820
1738.644531	9733.102539
1737.054688	9817.507813
1735.462891	9873.584961
1733.873047	9816.498047
1732.281250	9751.579102
1730.689453	9868.891602
1729.097656	9816.551758
1727.505859	9739.112305
1725.912109	9947.395508
1724.320313	9841.710938
1722.726563	9919.650391
1721.132813	9931.669922
1719.539063	10069.156250
1717.945313	9982.349609
1716.349609	10100.953125
1714.755859	10142.702148
1713.160156	10093.542969
1711.564453	10326.417969
1709.968750	10288.204102
1708.371094	10359.631836
1706.775391	10404.410156
1705.177734	10499.263672
1703.580078	10581.554688
1701.982422	10691.975586
1700.384766	10586.458984
1698.787109	10695.266602
1697.187500	10694.565430
1695.587891	10801.739258
1693.990234	10960.450195
1692.390625	11058.144531
1690.789063	10994.866211
1689.189453	11014.405273
1687.587891	11180.742188
1685.988281	11292.357422
1684.386719	11480.419922
1682.785156	11598.166016
1681.181641	11803.246094
1679.580078	11833.505859
1677.976563	12125.796875
1676.373047	12322.834961
1674.769531	12307.748047
1673.166016	12393.989258
1671.562500	12656.298828
1669.957031	12687.892578
1668.353516	13138.520508
1666.748047	13294.594727
1665.142578	13382.087891
1663.537109	13732.643555
1661.929688	13896.271484
1660.324219	14260.573242
1658.716797	14582.711914
1657.109375	14982.487305
1655.501953	15178.366211
1653.894531	15542.082031
1652.285156	15831.027344
1650.677734	15910.035156
1649.068359	16208.099609
1647.458984	16569.730469
1645.849609	16887.716797
1644.240234	17422.966797
1642.628906	17645.929688
1641.019531	17940.199219
1639.408203	18647.136719
1637.796875	19057.429688
1636.185547	19487.712891
1634.572266	20024.820313
1632.960938	20563.250000
1631.347656	20853.416016
1629.734375	21050.462891
1628.121094	21895.136719
1626.507813	22401.718750
1624.894531	22568.878906
1623.279297	23222.212891
1621.664063	23672.449219
1620.048828	24093.080078
1618.433594	24539.841797
1616.818359	24299.433594
1615.203125	24476.792969
1613.585938	24612.318359
1611.968750	24968.898438
1610.351563	24974.398438
1608.734375	25638.318359
1607.117188	25932.634766
1605.498047	26338.060547
1603.878906	26743.310547
1602.261719	27115.955078
1600.640625	27418.962891
1599.021484	27585.998047
1597.402344	27982.912109
1595.781250	27760.927734
1594.162109	28390.568359
1592.541016	28480.132813
1590.919922	29044.583984
1589.296875	29013.716797
1587.675781	29061.468750
1586.052734	29042.935547
1584.429688	29250.884766
1582.806641	29361.701172
1581.183594	29655.728516
1579.560547	30291.433594
1577.935547	30571.277344
1576.312500	30940.263672
1574.687500	30735.160156
1573.062500	30782.431641
1571.435547	31094.220703
1569.810547	30770.806641
1568.183594	30695.042969
1566.558594	30376.458984
1564.931641	29873.603516
1563.304688	29948.638672
1561.675781	29833.169922
1560.048828	29814.500000
1558.419922	29645.365234
1556.791016	30140.984375
1555.162109	30370.878906
1553.533203	30922.898438
1551.904297	31313.599609
1550.273438	31346.769531
1548.642578	31616.068359
1547.011719	31491.244141
1545.380859	31013.935547
1543.750000	30752.902344
1542.119141	30381.667969
1540.486328	29816.052734
1538.853516	28924.480469
1537.220703	28703.917969
1535.587891	27842.046875
1533.955078	27240.720703
1532.320313	26812.556641
1530.685547	26679.828125
1529.052734	26563.976563
1527.416016	26500.166016
1525.781250	26745.201172
1524.146484	26470.439453
1522.509766	26605.343750
1520.873047	26338.367188
1519.236328	26280.771484
1517.599609	26554.595703
1515.962891	26148.851563
1514.324219	26071.482422
1512.687500	26230.703125
1511.048828	26153.345703
1509.410156	25871.595703
1507.771484	25472.525391
1506.130859	25335.902344
1504.492188	25277.089844
1502.851563	25041.490234
1501.210938	24959.902344
1499.570313	25056.605469
1497.927734	24735.896484
1496.287109	24949.867188
1494.644531	24813.548828
1493.001953	24631.619141
1491.359375	24644.572266
1489.716797	24537.310547
1488.074219	24279.488281
1486.429688	24216.455078
1484.785156	23755.046875
1483.140625	23661.744141
1481.496094	23372.404297
1479.851563	23279.220703
1478.207031	22686.226563
1476.560547	22564.365234
1474.914063	22586.828125
1473.267578	22477.185547
1471.621094	22605.912109
1469.972656	22487.201172
1468.326172	22365.507813
1466.677734	22465.345703
1465.029297	22637.939453
1463.380859	22485.957031
1461.732422	22672.111328
1460.082031	22312.535156
1458.431641	22677.455078
1456.783203	22457.412109
1455.132813	22661.580078
1453.480469	22449.203125
1451.830078	22038.576172
1450.177734	22138.250000
1448.527344	21761.156250
1446.875000	21520.402344
1445.220703	21208.652344
1443.568359	21205.566406
1441.916016	21080.001953
1440.261719	20937.861328
1438.607422	20242.595703
1436.953125	20312.248047
1435.298828	20431.724609
1433.642578	19983.218750
1431.988281	19800.685547
1430.332031	19776.759766
1428.675781	19456.986328
1427.019531	19193.189453
1425.361328	19015.505859
1423.705078	18991.763672
1422.046875	18649.810547
1420.388672	18760.349609
1418.730469	18662.806641
1417.072266	18517.074219
1415.412109	18516.060547
1413.753906	18445.744141
1412.093750	18786.646484
1410.433594	18552.162109
1408.773438	18621.894531
1407.111328	19007.685547
1405.451172	19114.908203
1403.789063	19047.552734
1402.126953	19332.212891
1400.464844	19451.318359
1398.802734	19543.306641
1397.138672	19230.882813
1395.474609	19160.560547
1393.812500	19070.734375
1392.146484	18823.208984
1390.482422	18823.607422
1388.818359	18775.953125
1387.152344	18645.748047
1385.486328	18665.691406
1383.820313	18763.656250
1382.154297	19109.125000
1380.488281	19386.941406
1378.820313	19334.716797
1377.154297	19550.886719
1375.486328	19590.082031
1373.818359	19650.240234
1372.148438	19771.800781
1370.480469	19629.660156
1368.810547	19545.990234
1367.140625	20032.837891
1365.470703	20149.708984
1363.800781	20369.798828
1362.130859	20459.607422
1360.458984	20707.953125
1358.787109	21225.414063
1357.115234	21151.976563
1355.443359	21278.902344
1353.771484	21354.951172
1352.097656	21395.099609
1350.423828	21639.914063
1348.751953	22057.892578
1347.076172	22073.958984
1345.402344	22523.007813
1343.728516	22974.843750
1342.052734	23462.296875
1340.376953	23892.833984
1338.701172	24108.365234
1337.025391	24672.794922
1335.347656	24427.304688
1333.671875	24404.044922
1331.994141	24339.060547
1330.316406	24281.552734
1328.638672	24188.314453
1326.960938	24317.042969
1325.281250	24110.658203
1323.601563	24333.138672
1321.921875	24061.341797
1320.242188	24282.242188
1318.562500	23980.816406
1316.880859	23868.431641
1315.201172	23356.046875
1313.519531	23086.240234
1311.837891	22660.464844
1310.154297	22407.273438
1308.472656	21766.382813
1306.789063	21742.267578
1305.105469	21446.369141
1303.421875	21022.900391
1301.738281	20802.998047
1300.054688	20511.949219
1298.369141	20341.222656
1296.683594	20275.902344
1294.998047	20192.810547
1293.312500	20133.478516
1291.626953	20170.541016
1289.939453	19951.152344
1288.253906	19594.041016
1286.566406	19582.296875
1284.878906	19444.650391
1283.189453	19330.755859
1281.501953	19061.445313
1279.812500	18836.662109
1278.123047	18831.009766
1276.433594	18930.412109
1274.744141	18868.523438
1273.052734	19291.765625
1271.363281	19413.173828
1269.671875	19114.683594
1267.980469	18795.630859
1266.289063	18549.123047
1264.595703	18308.634766
1262.904297	18309.001953
1261.210938	18158.744141
1259.517578	17764.955078
1257.824219	17758.056641
1256.128906	17456.021484
1254.435547	17182.148438
1252.740234	17088.353516
1251.044922	17258.570313
1249.349609	17304.861328
1247.652344	17312.804688
1245.957031	17444.535156
1244.259766	17732.386719
1242.562500	17750.535156
1240.865234	17762.783203
1239.167969	17490.847656
1237.468750	17383.906250
1235.769531	17197.535156
1234.072266	16953.859375
1232.371094	16819.150391
1230.671875	16537.423828
1228.972656	16414.628906
1227.271484	16250.724609
1225.570313	16279.434570
1223.869141	16293.435547
1222.167969	15987.156250
1220.464844	16010.025391
1218.763672	16076.936523
1217.060547	16073.345703
1215.357422	16422.033203
1213.654297	16760.289063
1211.949219	16752.140625
1210.246094	16890.679688
1208.541016	17213.935547
1206.835938	16711.580078
1205.130859	16553.927734
1203.423828	16151.597656
1201.718750	16073.256836
1200.011719	15981.765625
1198.304688	15877.132813
1196.597656	15916.039063
1194.888672	15795.361328
1193.181641	15554.724609
1191.472656	15502.951172
1189.763672	15234.689453
1188.054688	15452.121094
1186.343750	15283.420898
1184.634766	15306.306641
1182.923828	15259.023438
1181.212891	15270.209961
1179.501953	15335.445313
1177.791016	15425.480469
1176.078125	15293.510742
1174.365234	15241.895508
1172.652344	15162.569336
1170.939453	15272.985352
1169.226563	15276.846680
1167.511719	15334.672852
1165.798828	15026.436523
1164.083984	15381.718750
1162.369141	15048.827148
1160.652344	15202.830078
1158.937500	15227.089844
1157.220703	15114.410156
1155.503906	14767.307617
1153.787109	14707.196289
1152.070313	14572.869141
1150.351563	14485.172852
1148.632813	14566.298828
1146.916016	14704.119141
1145.195313	14503.006836
1143.476563	14304.892578
1141.757813	13843.742188
1140.037109	13597.901367
1138.316406	13324.561523
1136.595703	13259.083984
1134.875000	12852.320313
1133.152344	12663.550781
1131.429688	12589.552734
1129.708984	12415.438477
1127.984375	12223.989258
1126.261719	11897.704102
1124.539063	11786.229492
1122.814453	11641.452148
1121.089844	11490.939453
1119.365234	11331.797852
1117.640625	11240.834961
1115.914063	11286.098633
1114.187500	11047.442383
1112.462891	10904.469727
1110.734375	10765.903320
1109.007813	10863.338867
1107.281250	10833.378906
1105.552734	10647.175781
1103.824219	10730.102539
1102.095703	10740.683594
1100.367188	10986.929688
1098.636719	10792.181641
1096.908203	10736.259766
1095.177734	10667.357422
1093.447266	10708.269531
1091.714844	10542.641602
1089.984375	10599.444336
1088.251953	10594.146484
1086.519531	10600.396484
1084.787109	10407.525391
1083.054688	10545.084961
1081.320313	10384.040039
1079.585938	10185.578125
1077.851563	10181.817383
1076.117188	10224.177734
1074.382813	10311.185547
1072.648438	10150.371094
1070.912109	10104.850586
1069.175781	9970.073242
1067.439453	10067.132813
1065.701172	10034.612305
1063.964844	9977.643555
1062.226563	9904.875000
1060.488281	9586.191406
1058.750000	9619.952148
1057.011719	9492.681641
1055.271484	9362.593750
1053.531250	9387.757813
1051.791016	9112.650391
1050.050781	9262.817383
1048.310547	9318.139648
1046.568359	9284.424805
1044.826172	9427.270508
1043.083984	9204.123047
1041.341797	9187.670898
1039.599609	9316.094727
1037.855469	9302.490234
1036.113281	9380.646484
1034.369141	9326.897461
1032.623047	9436.538086
1030.878906	9398.558594
1029.132813	9523.886719
1027.386719	9397.115234
1025.640625	9569.631836
1023.894531	9394.238281
1022.148438	9545.208008
1020.400391	9407.098633
1018.652344	9499.346680
1016.904297	9437.103516
1015.156250	9600.788086
1013.406250	9630.031250
1011.658203	9516.349609
1009.908203	9394.147461
1008.158203	9284.856445
1006.408203	9425.533203
1004.656250	9326.277344
1002.904297	9292.729492
1001.152344	9311.999023
999.400391	9385.477539
997.648438	9240.670898
995.896484	9155.828125
994.142578	9329.095703
992.388672	9081.764648
990.634766	9396.058594
988.878906	9257.111328
987.125000	9470.078125
985.369141	9543.376953
983.613281	9501.309570
981.857422	9454.990234
980.099609	9539.625000
978.343750	9701.053711
976.585938	9636.224609
974.828125	9585.646484
973.070313	9707.136719
971.310547	9689.259766
969.552734	9500.842773
967.792969	9691.889648
966.033203	9584.530273
964.273438	9539.708984
962.511719	9712.152344
960.750000	9921.424805
958.990234	9885.069336
957.226563	10094.203125
955.464844	9958.520508
953.703125	9804.462891
951.939453	9768.164063
950.175781	9458.282227
948.412109	9328.538086
946.648438	9258.364258
944.882813	9247.720703
943.117188	9317.809570
941.351563	9140.071289
939.585938	9179.006836
937.820313	9183.956055
936.052734	9212.957031
934.285156	9267.407227
932.517578	9463.263672
930.750000	9370.573242
928.982422	9465.942383
927.212891	9558.439453
925.443359	9609.916016
923.673828	9710.811523
921.904297	9817.307617
920.132813	9788.199219
918.361328	9605.227539
916.591797	9649.571289
914.818359	9537.267578
913.046875	9361.532227
911.275391	9312.812500
909.501953	9196.432617
907.728516	8971.555664
905.955078	9094.905273
904.179688	9054.744141
902.406250	8792.018555
900.630859	8891.377930
898.855469	8749.907227
897.080078	8773.208984
895.302734	8800.722656
893.525391	8660.775391
891.750000	8862.741211
889.970703	8926.779297
888.193359	8791.116211
886.416016	8713.153320
884.636719	8742.041992
882.857422	8546.093750
881.078125	8511.789063
879.296875	8522.443359
877.517578	8465.692383
875.736328	8522.677734
873.955078	8635.775391
872.173828	8552.375000
870.390625	8548.974609
868.609375	8441.788086
866.826172	8312.216797
865.042969	8391.582031
863.259766	8445.682617
861.474609	8540.392578
859.689453	8612.642578
857.904297	8560.208008
856.119141	8520.399414
854.333984	8365.817383
852.546875	8464.628906
850.761719	8532.610352
848.974609	8733.457031
847.185547	8709.035156
845.398438	8846.822266
843.609375	8825.178711
841.822266	8955.884766
840.031250	8763.755859
838.242188	8693.251953
836.453125	8571.104492
834.662109	8524.413086
832.871094	8561.501953
831.080078	8414.347656
829.289063	8325.864258
827.496094	8298.800781
825.703125	8328.930664
823.910156	8088.544922
822.117188	8018.340332
820.324219	8005.308594
818.529297	7848.766602
816.734375	7986.226074
814.939453	7859.007324
813.144531	7869.692383
811.347656	7838.610352
809.550781	7822.851074
807.755859	7809.881348
805.957031	7766.313477
804.160156	7593.426758
802.361328	7547.147949
800.564453	7589.855469
798.765625	7636.711426
796.964844	7465.404297
795.166016	7344.184570
793.365234	7278.572266
791.564453	7461.522949
789.763672	7531.948242
787.962891	7531.562500
786.160156	7607.486816
784.359375	7532.176270
782.556641	7516.533691
780.751953	7514.762695
778.949219	7504.674316
777.144531	7416.983887
775.339844	7538.545410
773.535156	7409.331055
771.730469	7359.114258
769.925781	7319.996094
768.119141	7272.590820
766.312500	7306.855469
764.505859	7357.706055
762.697266	7422.363770
760.890625	7596.239746
759.082031	7685.695801
757.273438	7893.981445
755.464844	8075.912109
753.654297	8583.810547
751.845703	8997.542969
750.035156	9518.791992
748.224609	10347.668945
746.412109	11185.816406
744.601563	11802.772461
742.789063	12332.519531
740.976563	12855.119141
739.164063	13774.615234
737.349609	15111.407227
735.537109	17023.705078
733.722656	18660.875000
731.908203	19361.830078
730.091797	18828.345703
728.277344	17000.710938
726.460938	14500.737305
724.644531	12224.917969
722.828125	10716.630859
721.009766	9590.130859
719.193359	8836.895508
717.375000	8554.288086
715.556641	8256.692383
713.736328	8102.175293
711.917969	7905.134766
710.097656	7844.188965
708.277344	7884.905762
706.457031	7740.232910
704.636719	7797.427246
702.814453	7777.735840
700.992188	7929.570313
699.169922	7785.020996
697.347656	7836.661621
695.523438	7888.277344
693.699219	8042.680176
691.875000	8205.232422
690.050781	8182.731934
688.226563	8189.008301
686.400391	8224.041016
684.574219	8215.242188
682.748047	7903.923340
680.921875	7718.659668
679.095703	7871.436035
677.267578	7802.538086
675.439453	7651.617676
673.611328	7634.759766
671.781250	7602.872559
669.953125	7555.967285
668.123047	7533.676758
666.292969	7518.225586
664.460938	7560.138184
662.630859	7464.133789
660.798828	7654.820801
658.966797	7597.049316
657.134766	7685.287598
655.302734	7784.395508
653.468750	7835.727051
651.634766	7963.381348
649.800781	8130.501953
647.966797	8169.447754
646.130859	8273.769531
644.294922	8151.937500
642.458984	8230.338867
640.623047	8274.666992
638.787109	8259.084961
636.949219	8334.681641
635.111328	8202.093750
633.273438	8253.183594
631.435547	8214.502930
629.595703	8296.833008
627.757813	8028.462891
625.917969	7947.737793
624.076172	7873.842773
622.236328	7832.579102
620.394531	7711.220703
618.552734	7519.328613
616.710938	7512.106445
614.869141	7434.330078
613.025391	7319.962891
611.183594	7205.649414
609.339844	7220.201660
607.494141	7215.767578
605.650391	7235.729980
603.804688	7068.701172
601.958984	6899.042480
600.113281	6868.955566
598.267578	6798.263672
596.419922	6914.407715
594.572266	6809.904785
592.724609	6985.521484
590.876953	6897.282227
589.027344	6864.531250
587.179688	6739.857422
585.330078	6586.856445
583.480469	6565.012695
581.628906	6621.540039
579.779297	6683.442871
577.927734	6572.462402
576.076172	6592.493652
574.222656	6765.038086
572.371094	6704.045898
570.517578	6769.899902
568.664063	6892.371582
566.810547	6929.830078
564.955078	6891.773438
563.101563	6892.821289
561.246094	6985.499023
559.390625	6897.608887
557.533203	6953.875000
555.677734	6796.012695
553.820313	6797.080078
551.962891	6670.285645
550.105469	6717.131348
548.246094	6656.333008
546.386719	6582.114258
544.527344	6393.638672
542.667969	6354.468750
540.808594	6261.558594
538.947266	6327.242676
537.085938	6258.562500
535.224609	6269.151855
533.363281	6340.156738
531.500000	6130.572754
529.638672	6275.388184
527.775391	6295.354004
525.910156	6501.764160
524.046875	6673.206543
522.181641	7217.297852
520.316406	7765.148926
518.451172	7441.662109
516.585938	6692.274902
514.718750	6284.812012
512.851563	6322.142578
510.984375	6110.432129
509.117188	6102.276367
507.250000	6040.596191
505.380859	6115.408203
503.511719	6150.057617
501.642578	6044.280762
499.771484	6046.843750
497.902344	6050.741699
496.031250	6047.956055
494.160156	6046.507324
492.287109	5999.647461
490.416016	5890.050293
488.542969	5944.708984
486.669922	5848.522949
484.796875	5949.867188
482.921875	5795.027832
481.046875	5808.310547
479.171875	5756.250000
477.296875	5598.901367
475.421875	5665.530273
473.544922	5740.121094
471.667969	5718.764160
469.791016	5706.739258
467.914063	5618.825684
466.035156	5734.621094
464.156250	5710.622559
462.277344	5698.609863
460.398438	5739.810547
458.519531	5666.621582
456.638672	5705.150391
454.757813	5639.979492
452.876953	5764.875488
450.994141	5735.593262
449.113281	5637.253418
447.230469	5600.047363
445.347656	5426.110352
443.462891	5538.960449
441.580078	5499.149902
439.695313	5576.106934
437.810547	5598.645020
435.925781	5662.280273
434.039063	5508.462891
432.152344	5574.739258
430.267578	5652.909668
428.378906	5533.648438
426.492188	5626.359375
424.603516	5610.445313
422.714844	5519.079590
420.826172	5470.110352
418.937500	5500.556152
417.046875	5614.328613
415.158203	5524.371094
413.265625	5478.090332
411.375000	5567.991211
409.484375	5558.727051
407.591797	5505.864258
405.699219	5544.174316
403.806641	5501.904785
401.912109	5573.205566
400.019531	5565.270020
