#Wave		#Intensity
2109.007813	2573.498535
2107.496094	2482.532959
2105.984375	2467.114014
2104.470703	2549.240967
2102.958984	2482.575928
2101.445313	2531.614258
2099.933594	2507.937500
2098.419922	2494.181396
2096.906250	2528.322754
2095.390625	2463.385498
2093.876953	2439.743896
2092.361328	2472.224609
2090.845703	2427.141357
2089.332031	2396.924561
2087.814453	2445.886230
2086.298828	2437.114258
2084.783203	2439.886230
2083.265625	2475.621338
2081.748047	2379.512207
2080.230469	2392.179932
2078.712891	2452.609375
2077.195313	2432.320068
2075.677734	2449.907471
2074.158203	2398.351563
2072.638672	2308.966064
2071.119141	2415.419434
2069.599609	2391.869629
2068.080078	2432.472412
2066.560547	2394.130371
2065.039063	2349.229004
2063.517578	2360.229492
2061.996094	2395.874512
2060.474609	2362.501953
2058.953125	2304.505371
2057.429688	2325.359375
2055.908203	2456.208496
2054.384766	2376.889893
2052.861328	2340.274902
2051.337891	2370.947998
2049.814453	2383.563232
2048.289063	2374.852051
2046.765625	2354.666260
2045.240234	2404.982910
2043.714844	2358.574707
2042.189453	2425.255615
2040.664063	2405.076416
2039.136719	2325.938232
2037.609375	2461.364014
2036.083984	2424.817139
2034.556641	2345.725586
2033.029297	2341.950684
2031.500000	2352.903320
2029.972656	2355.672119
2028.443359	2420.589844
2026.914063	2349.759521
2025.386719	2305.116699
2023.855469	2325.872559
2022.326172	2394.009521
2020.796875	2377.160156
2019.265625	2319.482178
2017.734375	2364.713623
2016.203125	2334.819336
2014.671875	2337.585938
2013.140625	2341.983154
2011.607422	2276.215576
2010.076172	2355.666016
2008.542969	2350.270752
2007.009766	2263.344971
2005.476563	2308.510742
2003.943359	2371.586914
2002.408203	2338.489258
2000.875000	2311.922852
1999.339844	2345.637451
1997.804688	2332.109131
1996.269531	2385.343506
1994.732422	2375.068359
1993.197266	2340.384521
1991.660156	2282.934814
1990.123047	2389.819824
1988.585938	2311.239746
1987.048828	2382.298096
1985.511719	2318.385254
1983.972656	2356.902832
1982.435547	2332.024902
1980.896484	2331.528809
1979.357422	2283.925049
1977.818359	2411.740723
1976.279297	2351.150146
1974.738281	2347.403564
1973.197266	2333.920410
1971.658203	2364.255615
1970.117188	2396.199951
1968.576172	2296.749023
1967.033203	2323.829102
1965.492188	2367.110840
1963.949219	2327.705078
1962.406250	2272.109619
1960.863281	2367.223389
1959.320313	2229.026611
1957.777344	2356.500977
1956.232422	2260.465332
1954.689453	2344.168457
1953.144531	2269.217285
1951.599609	2263.881348
1950.054688	2323.262207
1948.507813	2314.681641
1946.962891	2275.378418
1945.416016	2329.868408
1943.869141	2326.141357
1942.322266	2294.941162
1940.775391	2268.601563
1939.228516	2402.204590
1937.679688	2341.935547
1936.132813	2333.365234
1934.583984	2279.594238
1933.035156	2342.061035
1931.486328	2310.903320
1929.935547	2392.697998
1928.386719	2317.989746
1926.835938	2354.591553
1925.285156	2321.844971
1923.734375	2297.172363
1922.183594	2317.638184
1920.632813	2317.147461
1919.080078	2340.822266
1917.527344	2304.891357
1915.976563	2333.389648
1914.423828	2411.785889
1912.869141	2364.595215
1911.316406	2328.689697
1909.761719	2349.113525
1908.208984	2392.049805
1906.654297	2338.469727
1905.099609	2315.463379
1903.544922	2371.240234
1901.988281	2369.131348
1900.433594	2355.774658
1898.876953	2246.027588
1897.320313	2311.409180
1895.763672	2357.491943
1894.207031	2347.359863
1892.648438	2309.942871
1891.091797	2312.664307
1889.533203	2289.711426
1887.974609	2273.185059
1886.416016	2357.710205
1884.857422	2326.744385
1883.298828	2313.427002
1881.738281	2391.478271
1880.177734	2374.947510
1878.617188	2262.292236
1877.056641	2372.341797
1875.496094	2339.810303
1873.935547	2326.506348
1872.373047	2394.850586
1870.810547	2333.525635
1869.248047	2441.843262
1867.685547	2398.132324
1866.123047	2368.834717
1864.560547	2307.566650
1862.996094	2364.636230
1861.431641	2397.704590
1859.867188	2350.852295
1858.302734	2343.964355
1856.738281	2314.715088
1855.171875	2323.808838
1853.607422	2344.076172
1852.041016	2361.141846
1850.474609	2299.990967
1848.908203	2317.058594
1847.341797	2433.035889
1845.773438	2242.705566
1844.207031	2339.512207
1842.638672	2303.940918
1841.070313	2300.266113
1839.501953	2277.467773
1837.931641	2286.547363
1836.363281	2227.120605
1834.792969	2287.174316
1833.222656	2280.321777
1831.652344	2252.775146
1830.082031	2245.932373
1828.511719	2215.221680
1826.941406	2262.485596
1825.369141	2249.281982
1823.796875	2261.530273
1822.224609	2237.201904
1820.652344	2249.447266
1819.078125	2269.634033
1817.505859	2323.182373
1815.931641	2240.078857
1814.357422	2284.080322
1812.783203	2218.488525
1811.208984	2229.134033
1809.634766	2271.522217
1808.058594	2229.779541
1806.484375	2178.534424
1804.908203	2251.047119
1803.332031	2225.195313
1801.753906	2200.939941
1800.177734	2173.524170
1798.601563	2203.180420
1797.023438	2169.436768
1795.445313	2197.497070
1793.867188	2258.809570
1792.289063	2228.242676
1790.708984	2264.188965
1789.130859	2182.977051
1787.550781	2195.177490
1785.970703	2246.931152
1784.390625	2252.784668
1782.810547	2257.053955
1781.228516	2202.811523
1779.646484	2181.792969
1778.066406	2250.881836
1776.484375	2193.514160
1774.902344	2234.130859
1773.318359	2187.848389
1771.736328	2152.640625
1770.152344	2204.292969
1768.568359	2200.669922
1766.984375	2187.578369
1765.400391	2242.346191
1763.816406	2155.100586
1762.230469	2187.769287
1760.646484	2169.959961
1759.060547	2186.844727
1757.474609	2109.141846
1755.888672	2190.648438
1754.300781	2239.031250
1752.714844	2205.475830
1751.126953	2208.159668
1749.539063	2243.910400
1747.951172	2221.395264
1746.363281	2150.095215
1744.775391	2211.014160
1743.185547	2185.373047
1741.595703	2178.619141
1740.007813	2209.611816
1738.416016	2169.835938
1736.826172	2155.229004
1735.236328	2195.636963
1733.644531	2240.741699
1732.052734	2233.983643
1730.462891	2150.264893
1728.869141	2181.217041
1727.277344	2227.856201
1725.685547	2191.281982
1724.091797	2203.373291
1722.498047	2207.614014
1720.904297	2205.578125
1719.310547	2256.867188
1717.716797	2229.733154
1716.121094	2196.339600
1714.527344	2156.690674
1712.931641	2187.574707
1711.335938	2237.246094
1709.740234	2197.613281
1708.142578	2201.845947
1706.546875	2191.985596
1704.949219	2225.959473
1703.351563	2189.492188
1701.753906	2261.005127
1700.156250	2260.526123
1698.558594	2141.179932
1696.958984	2204.838623
1695.359375	2152.779785
1693.759766	2275.804688
1692.160156	2217.501709
1690.560547	2246.717285
1688.960938	2249.365234
1687.359375	2162.993408
1685.757813	2231.236328
1684.156250	2263.545898
1682.554688	2272.430176
1680.953125	2234.498779
1679.349609	2280.827148
1677.748047	2213.274414
1676.144531	2311.048096
1674.541016	2276.258057
1672.937500	2235.247559
1671.332031	2234.773438
1669.728516	2318.436035
1668.123047	2299.250977
1666.517578	2281.631348
1664.912109	2326.302979
1663.306641	2332.036133
1661.701172	2424.927246
1660.093750	2362.168213
1658.486328	2363.222412
1656.878906	2418.716553
1655.271484	2424.423340
1653.664063	2414.579834
1652.056641	2462.254883
1650.447266	2508.355469
1648.837891	2481.407959
1647.228516	2497.968994
1645.619141	2429.100098
1644.009766	2492.248779
1642.398438	2556.922852
1640.789063	2595.182861
1639.177734	2453.416260
1637.566406	2544.431885
1635.955078	2498.907471
1634.341797	2565.061279
1632.730469	2615.681885
1631.117188	2639.928223
1629.503906	2568.074219
1627.890625	2559.780029
1626.277344	2553.038574
1624.662109	2625.291016
1623.048828	2638.668701
1621.433594	2636.558838
1619.818359	2668.502441
1618.203125	2654.006348
1616.587891	2692.121094
1614.970703	2744.141113
1613.353516	2868.825928
1611.738281	2797.089111
1610.121094	2833.594238
1608.501953	2820.625977
1606.884766	2871.016846
1605.267578	2924.476074
1603.648438	2964.010986
1602.029297	3039.046387
1600.410156	3021.415283
1598.791016	3034.663086
1597.169922	3101.918457
1595.550781	3146.001221
1593.929688	3052.774658
1592.308594	3039.785156
1590.687500	2992.878662
1589.064453	2966.032471
1587.443359	2991.600830
1585.820313	3023.321777
1584.197266	3005.729492
1582.574219	3031.272217
1580.951172	3109.162109
1579.328125	3006.882813
1577.703125	3013.936768
1576.080078	2945.578125
1574.455078	2892.635010
1572.830078	2904.322998
1571.203125	2883.708252
1569.578125	2913.844482
1567.951172	2884.012207
1566.324219	2891.080322
1564.697266	2795.188721
1563.070313	2763.864014
1561.443359	2863.112793
1559.816406	2824.108154
1558.187500	2841.927734
1556.558594	2873.554443
1554.929688	2843.780029
1553.300781	2873.858154
1551.669922	2836.425781
1550.041016	2834.284424
1548.410156	2781.542236
1546.779297	2780.946289
1545.148438	2798.742676
1543.517578	2724.588135
1541.884766	2748.516846
1540.251953	2746.395752
1538.621094	2805.531250
1536.988281	2722.251465
1535.353516	2684.929443
1533.720703	2754.752441
1532.085938	2780.172607
1530.453125	2739.802002
1528.818359	2707.095703
1527.183594	2763.091309
1525.546875	2760.968994
1523.912109	2674.782959
1522.275391	2703.242432
1520.640625	2794.329102
1519.003906	2666.948975
1517.365234	2609.871826
1515.728516	2626.105469
1514.091797	2582.799561
1512.453125	2617.345459
1510.814453	2639.669678
1509.175781	2564.352783
1507.537109	2543.973633
1505.896484	2538.851563
1504.257813	2550.501221
1502.617188	2511.847656
1500.976563	2570.736816
1499.335938	2617.412354
1497.693359	2520.887207
1496.052734	2537.095703
1494.410156	2484.782715
1492.767578	2554.268799
1491.125000	2555.239990
1489.482422	2471.003662
1487.837891	2572.392822
1486.195313	2611.381348
1484.550781	2507.419189
1482.906250	2519.040039
1481.261719	2556.494385
1479.617188	2549.864014
1477.970703	2505.255127
1476.324219	2548.763184
1474.677734	2563.398682
1473.031250	2547.662109
1471.384766	2478.804199
1469.738281	2616.371582
1468.089844	2611.254395
1466.441406	2594.003174
1464.792969	2667.757324
1463.144531	2755.125977
1461.496094	2687.827148
1459.845703	2682.698730
1458.197266	2686.664063
1456.546875	2667.902588
1454.896484	2662.781250
1453.244141	2606.174072
1451.593750	2607.123779
1449.941406	2612.613770
1448.291016	2596.914307
1446.638672	2612.994873
1444.984375	2607.890381
1443.332031	2589.176514
1441.679688	2658.169189
1440.025391	2622.823242
1438.371094	2660.039063
1436.716797	2617.152344
1435.062500	2643.777588
1433.406250	2697.578125
1431.750000	2642.629883
1430.095703	2719.053223
1428.439453	2581.105713
1426.781250	2545.835938
1425.125000	2462.300781
1423.466797	2478.358643
1421.810547	2507.982178
1420.152344	2504.421387
1418.494141	2434.533936
1416.833984	2363.169678
1415.175781	2353.614990
1413.515625	2402.816162
1411.855469	2494.167969
1410.195313	2422.851807
1408.535156	2419.313477
1406.875000	2457.920654
1405.212891	2451.365967
1403.550781	2446.318604
1401.888672	2501.439941
1400.226563	2521.948730
1398.564453	2531.923584
1396.900391	2565.944824
1395.238281	2520.299561
1393.574219	2515.242188
1391.910156	2465.120605
1390.244141	2482.605225
1388.580078	2468.549316
1386.914063	2481.521484
1385.248047	2547.019043
1383.582031	2474.435547
1381.916016	2601.415527
1380.250000	2558.849609
1378.582031	2564.288574
1376.916016	2638.690918
1375.248047	2588.649414
1373.578125	2631.542725
1371.910156	2491.627686
1370.242188	2586.951172
1368.572266	2548.944580
1366.902344	2521.435547
1365.232422	2514.895752
1363.562500	2494.888672
1361.890625	2467.408936
1360.220703	2493.795898
1358.548828	2487.266846
1356.876953	2473.263916
1355.205078	2439.831787
1353.531250	2428.834229
1351.859375	2381.977051
1350.185547	2454.661133
1348.511719	2478.021484
1346.837891	2481.957764
1345.164063	2542.627197
1343.488281	2673.426758
1341.812500	2634.037842
1340.138672	2633.459473
1338.460938	2780.560791
1336.785156	2809.777588
1335.109375	2795.740479
1333.431641	2772.764893
1331.753906	2791.530518
1330.076172	2789.426270
1328.398438	2845.423340
1326.720703	2755.431885
1325.041016	2777.161865
1323.361328	2769.106689
1321.681641	2701.517090
1320.001953	2700.922119
1318.322266	2675.034912
1316.640625	2649.158691
1314.960938	2684.265869
1313.279297	2529.047119
1311.597656	2535.921631
1309.914063	2553.196289
1308.232422	2555.604736
1306.548828	2531.272949
1304.865234	2480.218994
1303.181641	2412.854004
1301.498047	2381.146484
1299.814453	2330.158691
1298.128906	2406.804199
1296.443359	2333.579834
1294.757813	2362.728027
1293.072266	2348.859863
1291.386719	2351.305664
1289.699219	2401.180908
1288.011719	2362.120850
1286.324219	2278.631104
1284.636719	2282.570557
1282.949219	2283.546143
1281.259766	2334.860596
1279.572266	2358.027344
1277.882813	2361.944824
1276.193359	2309.635986
1274.501953	2399.359131
1272.812500	2429.884766
1271.121094	2457.439453
1269.429688	2465.764160
1267.738281	2484.430664
1266.046875	2361.237061
1264.353516	2387.304199
1262.662109	2392.682129
1260.968750	2318.319092
1259.275391	2285.325439
1257.582031	2270.058105
1255.886719	2214.954590
1254.193359	2151.023438
1252.498047	2131.370361
1250.802734	2094.029785
1249.107422	2077.346436
1247.410156	2081.306396
1245.714844	2173.685303
1244.017578	2070.066650
1242.320313	2072.552002
1240.623047	2076.508545
1238.925781	2003.899902
1237.226563	1982.844849
1235.527344	1975.044556
1233.828125	1990.789673
1232.128906	1949.156250
1230.429688	1913.424072
1228.728516	1974.754395
1227.029297	1961.083130
1225.328125	2010.617065
1223.626953	1979.310547
1221.923828	1898.068604
1220.222656	1957.864136
1218.519531	1953.021606
1216.816406	1954.053467
1215.113281	1900.776733
1213.410156	1937.038330
1211.707031	1936.605347
1210.001953	1990.443726
1208.296875	1882.946411
1206.591797	1979.290527
1204.886719	1931.941650
1203.179688	1909.526978
1201.474609	2042.428833
1199.767578	2080.057129
1198.060547	2073.733154
1196.353516	2052.770264
1194.644531	2033.280273
1192.937500	2016.725952
1191.228516	1959.209473
1189.519531	1907.570068
1187.810547	1994.894165
1186.099609	1947.656128
1184.390625	1960.375977
1182.679688	1967.243774
1180.968750	1966.802124
1179.257813	1973.664917
1177.544922	1961.537109
1175.833984	1912.908691
1174.121094	1951.896362
1172.408203	1957.296021
1170.695313	1892.648926
1168.982422	1870.339478
1167.267578	1899.090698
1165.552734	1903.038208
1163.837891	1918.647339
1162.123047	2004.214600
1160.408203	1952.758423
1158.691406	1953.775635
1156.976563	1981.011475
1155.259766	1987.846680
1153.541016	2023.797974
1151.824219	2048.087646
1150.107422	2134.944824
1148.388672	2135.918457
1146.669922	2129.617920
1144.951172	2098.596680
1143.230469	1974.532959
1141.511719	1990.077637
1139.791016	1892.254272
1138.070313	1874.390747
1136.349609	1863.798584
1134.628906	1834.330322
1132.906250	1807.779297
1131.185547	1798.660400
1129.462891	1822.927124
1127.740234	1815.259644
1126.015625	1759.721680
1124.292969	1747.720459
1122.568359	1773.426025
1120.843750	1768.675415
1119.119141	1729.140991
1117.394531	1750.485596
1115.667969	1729.806641
1113.941406	1743.898926
1112.214844	1739.159424
1110.488281	1735.869629
1108.761719	1757.187622
1107.033203	1662.727173
1105.306641	1747.709961
1103.578125	1659.079956
1101.849609	1668.826294
1100.119141	1736.399780
1098.390625	1721.550903
1096.660156	1656.128662
1094.929688	1704.876099
1093.199219	1666.932129
1091.468750	1673.774170
1089.736328	1576.657349
1088.003906	1677.343628
1086.273438	1652.428345
1084.539063	1660.709473
1082.806641	1628.596436
1081.074219	1628.225708
1079.339844	1640.831787
1077.605469	1624.601440
1075.871094	1663.143799
1074.134766	1651.238037
1072.400391	1686.875366
1070.664063	1649.045410
1068.927734	1691.866089
1067.191406	1649.733154
1065.455078	1683.898438
1063.716797	1778.481812
1061.978516	1734.918823
1060.240234	1833.761841
1058.501953	1912.428589
1056.763672	2001.122437
1055.023438	1943.175049
1053.283203	1868.010742
1051.542969	1823.049316
1049.802734	1815.451294
1048.062500	1698.724731
1046.320313	1671.059570
1044.578125	1676.418579
1042.835938	1641.596069
1041.093750	1602.485352
1039.351563	1590.644287
1037.607422	1637.601440
1035.863281	1584.181519
1034.119141	1636.851563
1032.375000	1590.620972
1030.628906	1638.967041
1028.884766	1687.290894
1027.138672	1596.687744
1025.392578	1584.868286
1023.646484	1654.640991
1021.898438	1652.830566
1020.152344	1658.174194
1018.404297	1703.565308
1016.656250	1678.863770
1014.906250	1737.096436
1013.158203	1656.652222
1011.408203	1644.839355
1009.658203	1624.459351
1007.908203	1695.505859
1006.158203	1612.288330
1004.406250	1661.888550
1002.656250	1605.837524
1000.904297	1715.353516
999.150391	1733.506836
997.398438	1697.447266
995.646484	1722.726440
993.892578	1686.685669
992.138672	1649.235962
990.384766	1695.884888
988.628906	1708.317383
986.875000	1725.017212
985.119141	1697.561279
983.363281	1782.598145
981.607422	1729.518677
979.849609	1781.776245
978.093750	1769.982788
976.335938	1709.830078
974.578125	1735.034424
972.820313	1674.917114
971.060547	1670.265991
969.300781	1647.141479
967.542969	1666.653076
965.781250	1615.129395
964.021484	1697.127319
962.261719	1651.299561
960.500000	1717.635986
958.738281	1677.501099
956.976563	1643.060181
955.214844	1712.189087
953.451172	1764.267212
951.687500	1667.442383
949.923828	1696.825317
948.160156	1602.894897
946.396484	1701.707397
944.630859	1670.148560
942.865234	1644.269165
941.099609	1683.534180
939.333984	1608.117432
937.568359	1582.269897
935.800781	1581.903198
934.033203	1592.853271
932.265625	1575.512451
930.498047	1599.184326
928.730469	1557.818115
926.960938	1561.696411
925.191406	1564.159912
923.421875	1577.923218
921.652344	1535.187378
919.880859	1541.890747
918.109375	1558.472534
916.337891	1531.295166
914.566406	1537.994385
912.794922	1529.172852
911.021484	1494.968994
909.248047	1504.491455
907.474609	1495.683350
905.701172	1537.616455
903.927734	1459.761597
902.152344	1493.230957
900.376953	1454.857056
898.601563	1477.047241
896.826172	1506.265503
895.050781	1587.543701
893.273438	1439.431641
891.496094	1561.482788
889.718750	1513.300781
887.939453	1444.049927
886.162109	1539.304810
884.382813	1495.377563
882.603516	1486.598145
880.824219	1452.536743
879.044922	1470.455688
877.263672	1502.407349
875.482422	1504.864258
873.701172	1497.495605
871.919922	1467.680054
870.138672	1430.864258
868.355469	1472.604492
866.572266	1442.815186
864.789063	1445.281738
863.005859	1489.791870
861.220703	1475.431885
859.435547	1494.698730
857.650391	1483.145142
855.865234	1493.999634
854.080078	1450.254517
852.292969	1463.910522
850.505859	1455.172729
848.718750	1477.214111
846.931641	1493.650879
845.144531	1440.168701
843.355469	1476.176636
841.566406	1565.275146
839.777344	1567.702881
837.988281	1558.954102
836.197266	1607.469116
834.408203	1556.827026
832.617188	1514.584106
830.824219	1511.437744
829.033203	1572.475464
827.240234	1470.275269
825.449219	1449.010986
823.656250	1424.968018
821.861328	1441.361084
820.068359	1514.885620
818.273438	1429.537964
816.478516	1466.812866
814.683594	1377.338257
812.888672	1434.100220
811.091797	1417.059204
809.296875	1419.509521
807.500000	1405.262451
805.701172	1470.310059
803.904297	1444.931885
802.105469	1404.271362
800.308594	1370.580200
798.509766	1438.353638
796.708984	1410.227539
794.910156	1444.622192
793.109375	1406.786377
791.308594	1355.084229
789.507813	1464.423340
787.707031	1423.833740
785.904297	1426.273193
784.101563	1377.388794
782.298828	1368.743652
780.496094	1343.465088
778.693359	1417.998901
776.888672	1355.304077
775.083984	1321.733398
773.279297	1349.124512
771.474609	1404.198730
769.667969	1377.562378
767.861328	1373.084839
766.054688	1393.518433
764.248047	1358.601929
762.441406	1337.533569
760.632813	1398.063354
758.824219	1374.230347
757.015625	1430.575928
755.207031	1430.238159
753.398438	1410.558594
751.587891	1410.225464
749.777344	1441.652710
747.966797	1492.393066
746.154297	1508.603271
744.343750	1573.102661
742.531250	1582.387817
740.718750	1684.079102
738.906250	1872.594971
737.091797	2116.166016
735.277344	2298.977051
733.464844	2546.465576
731.648438	2588.569580
729.833984	2403.397949
728.019531	2182.512451
726.203125	1978.250977
724.386719	1785.096802
722.568359	1616.801880
720.751953	1527.000000
718.933594	1445.492676
717.115234	1430.025024
715.296875	1437.934326
713.478516	1410.106079
711.658203	1346.565796
709.839844	1353.115234
708.019531	1358.287964
706.197266	1316.773804
704.376953	1354.898438
702.554688	1357.321899
700.734375	1304.860474
698.910156	1281.230835
697.087891	1353.613281
695.265625	1345.065430
693.441406	1381.757568
691.617188	1347.167969
689.792969	1381.101685
687.966797	1368.445435
686.140625	1385.923828
684.316406	1354.103882
682.490234	1330.512085
680.662109	1342.512573
678.835938	1399.657593
677.007813	1343.242676
675.179688	1366.171631
673.351563	1326.197754
671.521484	1353.220337
669.693359	1336.499878
667.863281	1362.140625
666.033203	1379.573608
664.201172	1417.482056
662.371094	1396.666016
660.539063	1354.020630
658.707031	1387.813965
656.875000	1433.869629
655.041016	1419.888794
653.208984	1427.732788
651.375000	1439.662842
649.541016	1418.875244
647.705078	1394.009521
645.871094	1377.329468
644.035156	1409.689941
642.199219	1341.269531
640.363281	1357.286621
638.525391	1329.742432
636.689453	1386.575928
634.851563	1361.758423
633.013672	1384.555298
631.173828	1312.158569
629.335938	1359.425781
627.496094	1367.256470
625.656250	1337.037476
623.816406	1336.718750
621.974609	1359.488281
620.132813	1340.154785
618.292969	1388.704590
616.449219	1324.587036
614.607422	1336.482666
612.763672	1284.616455
610.921875	1289.734741
609.078125	1275.868408
607.232422	1247.097656
605.388672	1241.379150
603.542969	1285.794434
601.697266	1251.623291
599.851563	1252.678833
598.005859	1261.857300
596.158203	1288.628052
594.310547	1293.733521
592.462891	1260.953735
590.615234	1234.952637
588.765625	1222.486938
586.916016	1251.938721
585.066406	1232.716431
583.216797	1295.934937
581.367188	1290.221313
579.515625	1275.055420
577.664063	1303.108643
575.812500	1335.198364
573.960938	1365.923096
572.107422	1457.356079
570.253906	1559.537964
568.400391	1591.535400
566.546875	1583.064453
564.693359	1474.836914
562.837891	1459.658569
560.982422	1402.715820
559.126953	1330.981689
557.269531	1256.588013
555.414063	1253.594482
553.556641	1241.179077
551.699219	1213.965088
549.841797	1186.764038
547.982422	1228.181763
546.123047	1250.751221
544.263672	1232.972534
542.404297	1243.431641
540.544922	1265.980835
538.683594	1279.114014
536.822266	1276.121460
534.960938	1239.556030
533.099609	1278.196045
531.236328	1253.728271
529.373047	1241.350220
527.509766	1302.770386
525.646484	1400.377686
523.783203	1731.278564
521.917969	2430.717773
520.052734	2931.443604
518.187500	2550.160645
516.320313	1835.461792
514.455078	1435.871460
512.587891	1343.128906
510.720703	1313.354004
508.853516	1230.054321
506.984375	1213.701904
505.115234	1200.032959
503.246094	1213.120605
501.376953	1206.144165
499.507813	1244.624512
497.636719	1189.527832
495.765625	1246.700684
493.894531	1160.904053
492.021484	1153.947998
490.150391	1209.752808
488.277344	1148.055420
486.404297	1145.111084
484.531250	1123.487793
482.656250	1189.918091
480.781250	1128.284180
478.906250	1208.014771
477.031250	1134.408691
475.156250	1159.458374
473.279297	1144.524292
471.402344	1173.555542
469.525391	1138.648804
467.648438	1204.947632
465.769531	1201.996704
463.890625	1155.130737
462.011719	1153.523438
460.132813	1133.294678
458.251953	1163.609375
456.371094	1139.399048
454.490234	1148.430420
452.609375	1174.732910
450.728516	1159.837158
448.845703	1109.085815
446.962891	1135.378540
445.080078	1159.003418
443.197266	1164.034790
441.312500	1121.292603
439.427734	1167.456787
437.542969	1179.114014
435.658203	1112.530396
433.771484	1157.337646
431.886719	1188.869507
430.000000      1176.658936
428.111328	1131.335449
426.224609	1142.984131
424.335938	1141.386108
422.447266	1133.169800
420.558594	1119.663330
418.669922	1143.211914
416.779297	1132.355225
414.888672	1159.856934
412.998047	1123.879272
411.107422	1120.966064
409.214844	1108.803223
407.324219	1162.709229
405.431641	1151.863037
403.537109	1110.647461
401.644531	1143.389160
399.750000	1161.594971
