#Wave		#Intensity
2109.224609	5029.715332
2107.712891	5039.638672
2106.201172	5109.654297
2104.687500	5034.153320
2103.175781	5132.238770
2101.662109	5055.112793
2100.150391	5009.411621
2098.636719	5041.366211
2097.123047	5074.958496
2095.607422	5017.725098
2094.093750	5039.752930
2092.578125	5028.763184
2091.064453	5141.531250
2089.548828	5109.078613
2088.033203	5107.977051
2086.517578	5062.353516
2085.000000	5033.236328
2083.484375	4999.186523
2081.966797	5062.378418
2080.449219	5029.984375
2078.931641	5167.266602
2077.414063	5077.224609
2075.894531	4988.868164
2074.376953	5060.224609
2072.857422	4988.367676
2071.337891	5005.395020
2069.818359	5002.673828
2068.298828	5018.045410
2066.777344	5049.854492
2065.257813	5029.041504
2063.736328	5023.030273
2062.214844	5033.455078
2060.693359	5155.595703
2059.171875	5069.073730
2057.648438	5022.002930
2056.126953	5094.811035
2054.603516	5023.131348
2053.080078	5227.203613
2051.556641	5032.463379
2050.033203	5001.855957
2048.507813	5074.589844
2046.984375	5094.819824
2045.458984	5142.911133
2043.933594	5123.779785
2042.408203	5150.541016
2040.882813	5020.005859
2039.355469	5045.139648
2037.830078	5080.088867
2036.302734	4970.937988
2034.775391	4973.148438
2033.248047	4994.997559
2031.718750	4959.567383
2030.191406	5010.856934
2028.662109	5044.132813
2027.134766	5013.620605
2025.605469	5046.881348
2024.076172	5085.032227
2022.544922	4969.552734
2021.015625	4999.534180
2019.484375	5026.235840
2017.955078	5077.423340
2016.423828	5066.542480
2014.892578	5034.444824
2013.359375	5110.078613
2011.828125	4986.607910
2010.294922	4996.963867
2008.761719	5039.936523
2007.230469	5032.338867
2005.695313	4972.573242
2004.162109	5057.903320
2002.628906	5022.602539
2001.093750	5010.126953
1999.558594	5009.059082
1998.023438	5074.765137
1996.488281	5005.297363
1994.953125	4882.137207
1993.417969	5012.931152
1991.880859	5132.278320
1990.343750	5110.036621
1988.806641	5069.912109
1987.269531	5060.702148
1985.732422	4976.707031
1984.193359	4993.528809
1982.656250	4985.965820
1981.117188	5027.150391
1979.578125	4941.609375
1978.039063	5076.984375
1976.500000	5119.746582
1974.958984	5037.487305
1973.417969	4960.131836
1971.878906	4988.286621
1970.337891	5138.108887
1968.796875	5083.489746
1967.253906	4938.078613
1965.712891	5031.068359
1964.169922	4935.981445
1962.626953	5103.482422
1961.083984	4967.912109
1959.541016	4992.776855
1957.998047	4983.619141
1956.455078	5082.957031
1954.910156	4986.360352
1953.365234	4969.116211
1951.820313	5024.701172
1950.275391	4962.154297
1948.730469	4957.866699
1947.183594	5011.800781
1945.638672	5018.822266
1944.091797	5121.216797
1942.544922	4994.067383
1940.998047	4983.312988
1939.449219	5056.570801
1937.902344	5105.569336
1936.353516	5017.286133
1934.804688	5090.489258
1933.255859	5055.513184
1931.707031	4933.406738
1930.158203	5022.715332
1928.607422	4994.228516
1927.058594	5110.903320
1925.507813	5122.720215
1923.957031	5034.582031
1922.406250	5065.750977
1920.853516	4982.496094
1919.302734	5044.272949
1917.750000	4961.057617
1916.197266	5016.371094
1914.644531	4963.787598
1913.091797	5102.781738
1911.539063	5013.186523
1909.984375	4963.854492
1908.431641	5056.107910
1906.876953	4953.712402
1905.322266	4967.136230
1903.767578	5059.330078
1902.210938	4989.144531
1900.656250	4955.949707
1899.099609	5027.200195
1897.542969	5178.736328
1895.986328	5025.073730
1894.429688	5033.645020
1892.873047	5022.948730
1891.314453	4997.812500
1889.755859	4982.313965
1888.199219	5056.661621
1886.640625	5057.196289
1885.080078	5096.216797
1883.521484	4938.020508
1881.960938	5017.122559
1880.402344	5054.523926
1878.841797	5055.057617
1877.281250	4880.984375
1875.720703	5049.718262
1874.158203	5088.681641
1872.597656	5060.391113
1871.035156	4934.479004
1869.472656	5023.047852
1867.910156	4996.388672
1866.347656	5062.513184
1864.783203	4933.508301
1863.220703	4948.454590
1861.656250	5155.216309
1860.091797	5045.451172
1858.527344	5023.613281
1856.962891	5062.489746
1855.396484	5083.780273
1853.832031	5002.865234
1852.265625	5081.632813
1850.699219	5021.501953
1849.132813	5074.699219
1847.566406	4993.853027
1845.998047	5107.648926
1844.431641	5066.699707
1842.863281	5079.979980
1841.294922	5091.660156
1839.726563	5063.490234
1838.156250	5165.996094
1836.587891	5066.131348
1835.017578	5138.329590
1833.449219	5234.384277
1831.878906	5115.462402
1830.306641	5195.562500
1828.736328	5178.551270
1827.166016	5182.230957
1825.593750	5216.133301
1824.021484	5173.680664
1822.449219	5199.620117
1820.876953	5179.444824
1819.304688	5216.497559
1817.730469	5110.515625
1816.158203	5149.155762
1814.583984	5224.312500
1813.009766	5196.211914
1811.435547	5126.841309
1809.859375	5084.485840
1808.285156	5210.378418
1806.708984	4988.721191
1805.132813	5001.945313
1803.556641	5050.057129
1801.980469	5182.192871
1800.404297	5150.975586
1798.826172	5113.431641
1797.248047	5180.495117
1795.671875	5155.635254
1794.093750	5127.617188
1792.513672	5047.347656
1790.935547	5125.451660
1789.355469	4973.978027
1787.777344	5164.437500
1786.197266	5090.556641
1784.617188	5103.720215
1783.035156	5150.093750
1781.455078	5049.378418
1779.873047	5094.162598
1778.292969	5157.895996
1776.710938	5095.171387
1775.128906	5133.596191
1773.544922	5141.990234
1771.962891	5189.864746
1770.378906	5142.975586
1768.794922	5156.097656
1767.212891	5169.213867
1765.626953	5209.150879
1764.042969	5162.296387
1762.458984	5135.967285
1760.873047	5114.380371
1759.287109	5136.950195
1757.701172	5222.565918
1756.115234	5219.886230
1754.529297	5310.174316
1752.941406	5304.326172
1751.355469	5274.854004
1749.767578	5283.187012
1748.179688	5346.620117
1746.591797	5224.287598
1745.001953	5298.721680
1743.414063	5248.826660
1741.824219	5194.232910
1740.234375	5323.670410
1738.644531	5371.289063
1737.054688	5420.458984
1735.462891	5419.312500
1733.873047	5459.022461
1732.281250	5577.268555
1730.689453	5539.961914
1729.097656	5474.403809
1727.505859	5523.487793
1725.912109	5514.470703
1724.320313	5444.250488
1722.726563	5535.673340
1721.132813	5595.682617
1719.539063	5575.677734
1717.945313	5558.816895
1716.349609	5545.098633
1714.755859	5584.677246
1713.160156	5625.806152
1711.564453	5690.418457
1709.968750	5682.948242
1708.371094	5623.799805
1706.775391	5766.658203
1705.177734	5716.909180
1703.580078	5693.787109
1701.982422	5780.207520
1700.384766	5669.473633
1698.787109	5704.246582
1697.187500	5770.279785
1695.587891	5842.538574
1693.990234	5713.126465
1692.390625	5727.543945
1690.789063	5843.512695
1689.189453	5937.562500
1687.587891	5809.800293
1685.988281	6000.626465
1684.386719	5888.515625
1682.785156	6013.690430
1681.181641	5881.337402
1679.580078	6087.585938
1677.976563	6008.305664
1676.373047	6099.039063
1674.769531	6181.938477
1673.166016	6233.625977
1671.562500	6224.511230
1669.957031	6163.981445
1668.353516	6330.916504
1666.748047	6390.314453
1665.142578	6418.543945
1663.537109	6471.669922
1661.929688	6582.362793
1660.324219	6576.296875
1658.716797	6641.800781
1657.109375	6837.937500
1655.501953	6760.282715
1653.894531	6951.645508
1652.285156	7068.311035
1650.677734	7237.768066
1649.068359	7279.737793
1647.458984	7514.324219
1645.849609	7567.088867
1644.240234	7697.472656
1642.628906	7891.453613
1641.019531	8004.638184
1639.408203	8024.662109
1637.796875	8364.291992
1636.185547	8463.341797
1634.572266	8588.712891
1632.960938	8931.105469
1631.347656	9104.378906
1629.734375	9145.838867
1628.121094	9408.865234
1626.507813	9510.661133
1624.894531	9837.000977
1623.279297	10039.317383
1621.664063	10119.236328
1620.048828	10378.676758
1618.433594	10404.323242
1616.818359	10481.016602
1615.203125	10570.051758
1613.585938	10858.557617
1611.968750	11061.895508
1610.351563	11248.141602
1608.734375	11551.771484
1607.117188	11808.914063
1605.498047	12084.485352
1603.878906	12406.276367
1602.261719	12610.563477
1600.640625	12751.461914
1599.021484	12838.271484
1597.402344	12860.225586
1595.781250	12818.908203
1594.162109	13158.636719
1592.541016	13146.575195
1590.919922	13404.362305
1589.296875	13780.745117
1587.675781	13722.315430
1586.052734	14249.483398
1584.429688	14425.156250
1582.806641	14782.511719
1581.183594	14780.894531
1579.560547	14979.432617
1577.935547	15244.077148
1576.312500	15330.082031
1574.687500	15320.650391
1573.062500	14912.788086
1571.435547	14783.481445
1569.810547	14545.052734
1568.183594	14272.903320
1566.558594	13836.405273
1564.931641	13444.658203
1563.304688	13275.852539
1561.675781	13283.763672
1560.048828	13009.097656
1558.419922	12780.610352
1556.791016	12668.883789
1555.162109	12696.866211
1553.533203	12522.292969
1551.904297	12528.815430
1550.273438	12446.375977
1548.642578	12626.185547
1547.011719	12559.089844
1545.380859	12613.110352
1543.750000	12745.260742
1542.119141	12630.683594
1540.486328	12785.748047
1538.853516	12735.531250
1537.220703	12878.255859
1535.587891	12662.711914
1533.955078	12474.808594
1532.320313	12680.229492
1530.685547	12443.447266
1529.052734	12538.662109
1527.416016	12291.305664
1525.781250	12284.079102
1524.146484	12134.705078
1522.509766	11860.084961
1520.873047	11860.591797
1519.236328	11569.343750
1517.599609	11479.807617
1515.962891	11330.761719
1514.324219	11279.476563
1512.687500	11234.317383
1511.048828	11172.391602
1509.410156	10947.259766
1507.771484	10851.866211
1506.130859	10616.223633
1504.492188	10406.599609
1502.851563	10340.340820
1501.210938	10095.814453
1499.570313	10028.126953
1497.927734	10019.874023
1496.287109	9949.183594
1494.644531	9937.904297
1493.001953	9922.062500
1491.359375	9991.454102
1489.716797	9977.126953
1488.074219	9774.166992
1486.429688	9816.166016
1484.785156	9766.910156
1483.140625	9640.138672
1481.496094	9428.303711
1479.851563	9218.079102
1478.207031	8848.417969
1476.560547	8718.913086
1474.914063	8653.247070
1473.267578	8391.745117
1471.621094	8344.392578
1469.972656	8175.646484
1468.326172	7972.074219
1466.677734	7871.745117
1465.029297	8001.994141
1463.380859	7888.053711
1461.732422	7936.376465
1460.082031	7984.677246
1458.431641	7954.157227
1456.783203	8053.943359
1455.132813	8030.994141
1453.480469	8005.024902
1451.830078	8078.994141
1450.177734	8193.800781
1448.527344	8148.137695
1446.875000	8166.041992
1445.220703	8106.787598
1443.568359	8189.725586
1441.916016	8393.593750
1440.261719	8287.461914
1438.607422	8293.221680
1436.953125	8323.156250
1435.298828	8203.509766
1433.642578	8354.284180
1431.988281	8098.770508
1430.332031	7900.739258
1428.675781	7865.814941
1427.019531	7624.153809
1425.361328	7497.266602
1423.705078	7412.670898
1422.046875	7347.717773
1420.388672	7326.518555
1418.730469	7297.790527
1417.072266	7223.859375
1415.412109	7403.108887
1413.753906	7285.496582
1412.093750	7306.503906
1410.433594	7149.810547
1408.773438	7121.154297
1407.111328	7221.957520
1405.451172	7306.162598
1403.789063	7232.352539
1402.126953	7242.810547
1400.464844	7230.705078
1398.802734	7370.463867
1397.138672	7307.224121
1395.474609	7262.046387
1393.812500	7179.323242
1392.146484	7255.874023
1390.482422	7252.788574
1388.818359	7227.180176
1387.152344	7094.992188
1385.486328	7198.508789
1383.820313	7124.907227
1382.154297	7121.850586
1380.488281	7079.795898
1378.820313	7055.754395
1377.154297	7016.729492
1375.486328	7109.630859
1373.818359	6986.685547
1372.148438	6982.160645
1370.480469	7009.095215
1368.810547	6898.231934
1367.140625	6995.546387
1365.470703	6877.248535
1363.800781	6923.636230
1362.130859	6800.915527
1360.458984	6824.857910
1358.787109	6914.600098
1357.115234	6718.687012
1355.443359	7008.747070
1353.771484	6794.961426
1352.097656	6815.886719
1350.423828	6768.076172
1348.751953	6739.704102
1347.076172	6562.003906
1345.402344	6750.183594
1343.728516	6529.268066
1342.052734	6665.136719
1340.376953	6715.895996
1338.701172	6648.783203
1337.025391	6684.607910
1335.347656	6699.541016
1333.671875	6757.699219
1331.994141	6754.722656
1330.316406	6768.138672
1328.638672	6809.853516
1326.960938	6878.360352
1325.281250	6765.161133
1323.601563	6848.533691
1321.921875	6765.159180
1320.242188	6882.722168
1318.562500	6787.472656
1316.880859	6754.739746
1315.201172	6726.481934
1313.519531	6893.012695
1311.837891	6967.305176
1310.154297	6941.989746
1308.472656	7026.638184
1306.789063	7130.560547
1305.105469	7262.655762
1303.421875	7391.721680
1301.738281	7589.019531
1300.054688	7600.701660
1298.369141	7495.149902
1296.683594	7573.606934
1294.998047	7485.905273
1293.312500	7448.660645
1291.626953	7567.103027
1289.939453	7526.891113
1288.253906	7534.117676
1286.566406	7631.717773
1284.878906	7553.002930
1283.189453	7474.322266
1281.501953	7294.993164
1279.812500	7380.714844
1278.123047	7245.883789
1276.433594	7296.065430
1274.744141	7111.015137
1273.052734	7236.630859
1271.363281	7134.478027
1269.671875	7160.984375
1267.980469	7039.678223
1266.289063	6992.309082
1264.595703	7074.965332
1262.904297	6937.510254
1261.210938	7000.943848
1259.517578	6900.473633
1257.824219	6718.865723
1256.128906	6742.459961
1254.435547	6640.636719
1252.740234	6648.010742
1251.044922	6643.583496
1249.349609	6566.912109
1247.652344	6494.696777
1245.957031	6583.149414
1244.259766	6571.370605
1242.562500	6528.661621
1240.865234	6544.881348
1239.167969	6534.589355
1237.468750	6555.214844
1235.769531	6619.983887
1234.072266	6447.822266
1232.371094	6374.300781
1230.671875	6409.648926
1228.972656	6343.520020
1227.271484	6299.471191
1225.570313	6371.555664
1223.869141	6484.751953
1222.167969	6415.724121
1220.464844	6384.915527
1218.763672	6401.111328
1217.060547	6220.566895
1215.357422	6304.311035
1213.654297	6398.289551
1211.949219	6374.851563
1210.246094	6292.750000
1208.541016	6427.728516
1206.835938	6260.611816
1205.130859	6244.552246
1203.423828	6249.016602
1201.718750	6240.291992
1200.011719	6151.002441
1198.304688	6123.263184
1196.597656	6234.636230
1194.888672	6269.836426
1193.181641	6275.749023
1191.472656	6259.709961
1189.763672	6408.985352
1188.054688	6406.085449
1186.343750	6474.836426
1184.634766	6486.540527
1182.923828	6559.625977
1181.212891	6505.547852
1179.501953	6658.946289
1177.791016	6507.008301
1176.078125	6410.628418
1174.365234	6325.970703
1172.652344	6296.815918
1170.939453	6317.290039
1169.226563	6304.197754
1167.511719	6311.531738
1165.798828	6380.110352
1164.083984	6422.414551
1162.369141	6550.700195
1160.652344	6636.665039
1158.937500	6700.735352
1157.220703	6716.706055
1155.503906	6843.351074
1153.787109	6808.320801
1152.070313	6723.812012
1150.351563	6650.983887
1148.632813	6322.102539
1146.916016	6243.577148
1145.195313	6282.891113
1143.476563	6101.171875
1141.757813	6011.117676
1140.037109	5982.146484
1138.316406	5791.897461
1136.595703	5613.355957
1134.875000	5572.873047
1133.152344	5661.642578
1131.429688	5645.845215
1129.708984	5661.985840
1127.984375	5682.471680
1126.261719	5530.307129
1124.539063	5402.868164
1122.814453	5394.395020
1121.089844	5214.851074
1119.365234	5236.861816
1117.640625	5163.219727
1115.914063	5188.128418
1114.187500	5046.451660
1112.462891	5129.300293
1110.734375	5000.730469
1109.007813	5073.417969
1107.281250	5050.560059
1105.552734	5058.095703
1103.824219	5122.040039
1102.095703	5009.522949
1100.367188	4938.985352
1098.636719	5018.812988
1096.908203	5001.775879
1095.177734	4908.169434
1093.447266	4774.157715
1091.714844	4739.855957
1089.984375	4901.936035
1088.251953	4799.773438
1086.519531	4704.873047
1084.787109	4708.131836
1083.054688	4767.647949
1081.320313	4798.291992
1079.585938	4657.335449
1077.851563	4778.808594
1076.117188	4773.396484
1074.382813	4834.268555
1072.648438	4742.410156
1070.912109	4810.461914
1069.175781	4761.847656
1067.439453	4661.429688
1065.701172	4699.227051
1063.964844	4775.857910
1062.226563	4734.487305
1060.488281	4763.610840
1058.750000	4726.574219
1057.011719	4829.004883
1055.271484	4687.046387
1053.531250	4645.740234
1051.791016	4694.961426
1050.050781	4762.832031
1048.310547	4589.424316
1046.568359	4592.682129
1044.826172	4638.998047
1043.083984	4761.347168
1041.341797	4642.614746
1039.599609	4665.936035
1037.855469	4613.243164
1036.113281	4663.800293
1034.369141	4662.732422
1032.623047	4615.807129
1030.878906	4557.441406
1029.132813	4668.122559
1027.386719	4541.032227
1025.640625	4582.942871
1023.894531	4530.361816
1022.148438	4536.478027
1020.400391	4558.329102
1018.652344	4521.522949
1016.904297	4540.506348
1015.156250	4556.621094
1013.406250	4469.809570
1011.658203	4454.492188
1009.908203	4374.886719
1008.158203	4391.022461
1006.408203	4529.968262
1004.656250	4476.099121
1002.904297	4476.497559
1001.152344	4692.391113
999.400391	4704.153320
997.648438	4677.394531
995.896484	4607.863281
994.142578	4638.170410
992.388672	4554.424805
990.634766	4492.094238
988.878906	4499.608398
987.125000	4609.683105
985.369141	4507.504395
983.613281	4505.041992
981.857422	4529.626465
980.099609	4501.541504
978.343750	4521.846191
976.585938	4579.126953
974.828125	4516.916016
973.070313	4491.701660
971.310547	4476.449219
969.552734	4577.743652
967.792969	4519.850586
966.033203	4557.162109
964.273438	4625.700684
962.511719	4731.124512
960.750000	4644.856445
958.990234	4656.556152
957.226563	4632.776367
955.464844	4590.565918
953.703125	4573.903320
951.939453	4521.799316
950.175781	4547.687500
948.412109	4657.182617
946.648438	4552.666992
944.882813	4509.113770
943.117188	4522.232422
941.351563	4498.529297
939.585938	4568.269043
937.820313	4551.641602
936.052734	4588.791504
934.285156	4555.190430
932.517578	4593.734863
930.750000	4536.109375
928.982422	4624.118652
927.212891	4628.698730
925.443359	4695.449219
923.673828	4762.167969
921.904297	4883.937500
920.132813	4806.553711
918.361328	4746.145508
916.591797	4804.320801
914.818359	4688.909668
913.046875	4597.533691
911.275391	4627.493652
909.501953	4630.647461
907.728516	4573.181152
905.955078	4507.284668
904.179688	4486.508789
902.406250	4547.449707
900.630859	4554.841797
898.855469	4491.825195
897.080078	4455.585449
895.302734	4636.107422
893.525391	4544.972168
891.750000	4546.727051
889.970703	4727.100098
888.193359	4662.722656
886.416016	4536.519043
884.636719	4535.461426
882.857422	4441.664063
881.078125	4435.008789
879.296875	4285.098145
877.517578	4334.647949
875.736328	4351.886230
873.955078	4305.958008
872.173828	4286.711426
870.390625	4320.781250
868.609375	4318.369629
866.826172	4366.437500
865.042969	4264.482910
863.259766	4343.374023
861.474609	4277.902832
859.689453	4279.704590
857.904297	4410.355957
856.119141	4342.113281
854.333984	4335.498047
852.546875	4426.855469
850.761719	4267.704590
848.974609	4371.624512
847.185547	4448.922363
845.398438	4396.145020
843.609375	4452.430664
841.822266	4368.928711
840.031250	4461.522949
838.242188	4345.927246
836.453125	4381.221191
834.662109	4374.608887
832.871094	4313.556152
831.080078	4411.635742
829.289063	4303.161621
827.496094	4215.662598
825.703125	4203.516113
823.910156	4123.052734
822.117188	4130.448730
820.324219	4068.157227
818.529297	4081.135742
816.734375	4057.888916
814.939453	4079.218994
813.144531	4089.399658
811.347656	3952.018311
809.550781	4038.767822
807.755859	4051.732422
805.957031	3996.528564
804.160156	4020.622070
802.361328	4066.950439
800.564453	4117.427246
798.765625	4017.785889
796.964844	4034.903076
795.166016	4108.964844
793.365234	4112.164063
791.564453	4176.453613
789.763672	4240.711914
787.962891	4145.343262
786.160156	4083.318115
784.359375	4132.293457
782.556641	4060.592285
780.751953	3973.673340
778.949219	3943.627441
777.144531	3913.595459
775.339844	3912.672607
773.535156	3928.372314
771.730469	3906.673096
769.925781	3776.990479
768.119141	3864.688477
766.312500	3789.047363
764.505859	3807.522949
762.697266	3817.689941
760.890625	3884.550781
759.082031	3766.115234
757.273438	3797.017578
755.464844	3688.331543
753.654297	3773.118652
751.845703	3766.702393
750.035156	3837.621094
748.224609	3809.102051
746.412109	3853.750977
744.601563	3861.119873
742.789063	3818.818115
740.976563	3788.949707
739.164063	3818.391113
737.349609	3774.749756
735.537109	3866.204834
733.722656	3826.706055
731.908203	3827.178223
730.091797	3881.366211
728.277344	3768.908936
726.460938	3768.016602
724.644531	3852.459473
722.828125	3731.831299
721.009766	3732.323242
719.193359	3720.436035
717.375000	3740.180664
715.556641	3791.534668
713.736328	3771.394287
711.917969	3774.622803
710.097656	3843.790039
708.277344	3892.322510
706.457031	3802.147217
704.636719	3830.074219
702.814453	3785.247070
700.992188	3873.538086
699.169922	3872.619141
697.347656	3781.182373
695.523438	3774.800537
693.699219	3886.312988
691.875000	3900.466064
690.050781	3740.599121
688.226563	3801.354492
686.400391	3815.516846
684.574219	3787.226563
682.748047	3871.197754
680.921875	3844.275635
679.095703	3824.207031
677.267578	3783.629150
675.439453	3847.006348
673.611328	3876.171875
671.781250	3849.278809
669.953125	3908.494385
668.123047	3925.326904
666.292969	3897.074463
664.460938	4050.464111
662.630859	4104.113281
660.798828	4056.727539
658.966797	4173.123047
657.134766	4241.711426
655.302734	4296.626465
653.468750	4266.966309
651.634766	4282.311523
649.800781	4324.909180
647.966797	4308.889648
646.130859	4369.171387
644.294922	4395.372070
642.458984	4451.518555
640.623047	4270.751953
638.787109	4286.067871
636.949219	4276.882324
635.111328	4309.874512
633.273438	4153.794434
631.435547	4267.026855
629.595703	4131.422852
627.757813	4125.001953
625.917969	4076.459717
624.076172	3979.034912
622.236328	3840.910889
620.394531	3751.734863
618.552734	3756.270508
616.710938	3741.802734
614.869141	3701.560791
613.025391	3729.165527
611.183594	3722.851074
609.339844	3694.844971
607.494141	3700.741211
605.650391	3804.213135
603.804688	3701.685303
601.958984	3652.035645
600.113281	3649.809814
598.267578	3768.087646
596.419922	3587.153564
594.572266	3533.517822
592.724609	3688.268799
590.876953	3560.236816
589.027344	3430.913330
587.179688	3472.006836
585.330078	3477.936035
583.480469	3396.022461
581.628906	3439.796143
579.779297	3464.638428
577.927734	3363.879883
576.076172	3402.228760
574.222656	3323.129395
572.371094	3364.167969
570.517578	3299.955322
568.664063	3304.561768
566.810547	3287.590088
564.955078	3398.701172
563.101563	3312.975098
561.246094	3321.615723
559.390625	3345.070801
557.533203	3286.355713
555.677734	3315.193848
553.820313	3261.898438
551.962891	3270.539551
550.105469	3319.543701
548.246094	3324.130859
546.386719	3165.978271
544.527344	3237.830078
542.667969	3265.285645
540.808594	3155.642822
538.947266	3192.509766
537.085938	3152.789551
535.224609	3173.523193
533.363281	3162.022217
531.500000	3141.130127
529.638672	3106.827148
527.775391	3205.370850
525.910156	3234.114502
524.046875	3272.231689
522.181641	3567.755615
520.316406	3884.584961
518.451172	3874.274170
516.585938	3551.795898
514.718750	3351.364014
512.851563	3264.855713
510.984375	3144.917725
509.117188	3195.028076
507.250000	3160.808350
505.380859	3105.198486
503.511719	3165.982178
501.642578	3191.968506
499.771484	3147.085938
497.902344	3114.254150
496.031250	3221.746094
494.160156	3164.864502
492.287109	3166.777588
490.416016	3155.336426
488.542969	3157.250488
486.669922	3127.131348
484.796875	3103.698242
482.921875	3090.948486
481.046875	3026.189697
479.171875	3078.800293
477.296875	2996.745117
475.421875	3059.999268
473.544922	3008.633545
471.667969	3049.208252
469.791016	2999.201172
467.914063	3034.432373
466.035156	3052.341309
464.156250	2962.443848
462.277344	3037.573242
460.398438	2926.438965
458.519531	3082.663330
456.638672	3054.003906
454.757813	3111.758545
452.876953	3056.526855
450.994141	3039.851074
449.113281	3051.077148
447.230469	3021.130615
445.347656	3012.440674
443.462891	3096.667969
441.580078	3111.849854
439.695313	3018.235352
437.810547	3167.392822
435.925781	3235.588623
434.039063	3095.610107
432.152344	3145.234375
430.267578	3074.249756
428.378906	3050.991699
426.492188	3075.425293
424.603516	3003.183838
422.714844	2986.578125
420.826172	3099.685059
418.937500	3007.641113
417.046875	3107.459473
415.158203	3037.941162
413.265625	3076.880615
411.375000	3146.205811
409.484375	3198.316650
407.591797	3196.228760
405.699219	3203.388672
403.806641	3156.397705
401.912109	3072.458984
400.019531	3059.842529
