#Wave		#Intensity
1585.210938	14274.045898
1584.209961	14209.107422
1583.208984	14298.556641
1582.208008	14213.206055
1581.206055	14025.550781
1580.204102	14027.636719
1579.202148	14276.731445
1578.200195	14014.341797
1577.198242	14393.024414
1576.195313	14148.172852
1575.192383	14120.312500
1574.189453	14359.157227
1573.186523	14174.270508
1572.182617	14188.774414
1571.178711	14091.180664
1570.174805	13956.270508
1569.170898	13858.763672
1568.166992	14027.661133
1567.162109	14228.842773
1566.158203	14106.455078
1565.153320	14028.899414
1564.147461	13941.424805
1563.142578	14107.640625
1562.136719	13933.166016
1561.130859	14062.026367
1560.125000	14128.702148
1559.119141	14090.990234
1558.113281	14011.060547
1557.106445	14144.764648
1556.099609	14079.755859
1555.092773	13957.670898
1554.084961	13952.298828
1553.078125	13932.038086
1552.070313	13832.389648
1551.062500	13740.222656
1550.054688	14099.474609
1549.045898	14037.044922
1548.038086	13917.622070
1547.029297	13855.253906
1546.020508	13921.771484
1545.011719	13906.500977
1544.001953	14057.198242
1542.992188	13935.415039
1541.982422	14182.607422
1540.972656	14041.042969
1539.962891	14052.985352
1538.952148	14067.397461
1537.942383	13812.140625
1536.931641	14101.148438
1535.919922	13947.379883
1534.909180	13796.146484
1533.897461	13751.267578
1532.886719	13886.818359
1531.874023	13790.049805
1530.862305	14103.403320
1529.850586	13846.086914
1528.837891	13971.625977
1527.825195	13889.730469
1526.812500	13793.057617
1525.799805	13819.815430
1524.786133	13999.535156
1523.772461	13823.959961
1522.758789	13752.041992
1521.745117	13796.043945
1520.731445	13793.187500
1519.716797	13797.725586
1518.702148	13802.260742
1517.687500	13720.562500
1516.672852	13917.243164
1515.657227	13882.345703
1514.642578	13842.537109
1513.626953	13807.668945
1512.610352	13996.782227
1511.594727	13870.848633
1510.579102	13759.728516
1509.562500	13865.103516
1508.545898	13761.407227
1507.529297	13837.233398
1506.511719	13903.194336
1505.494141	13784.806641
1504.477539	13885.149414
1503.458984	13634.156250
1502.441406	13928.519531
1501.423828	13741.464844
1500.405273	13993.946289
1499.386719	13635.134766
1498.368164	13627.401367
1497.348633	13752.163086
1496.330078	13943.104492
1495.310547	13766.084961
1494.291016	13787.752930
1493.271484	13880.504883
1492.250977	13737.920898
1491.231445	13747.326172
1490.210938	13629.328125
1489.190430	13748.977539
1488.168945	13716.740234
1487.148438	13709.000000
1486.126953	13701.262695
1485.105469	13705.765625
1484.083984	13881.551758
1483.061523	13690.297852
1482.040039	13863.567383
1481.017578	13836.238281
1479.995117	13662.225586
1478.971680	13818.279297
1477.949219	13768.980469
1476.925781	13727.031250
1475.902344	13792.584961
1474.878906	13828.803711
1473.855469	13843.028320
1472.831055	14045.233398
1471.806641	13910.513672
1470.782227	14029.646484
1469.757813	14256.082031
1468.733398	13992.114258
1467.708008	13942.874023
1466.682617	14059.459961
1465.657227	14061.418945
1464.631836	14053.626953
1463.605469	14165.241211
1462.579102	14325.535156
1461.552734	14178.849609
1460.526367	14546.073242
1459.500000	14216.791016
1458.472656	14600.892578
1457.445313	14422.629883
1456.417969	14697.030273
1455.390625	14684.248047
1454.362305	14520.668945
1453.334961	14379.043945
1452.306641	14847.722656
1451.277344	14684.209961
1450.249023	14571.798828
1449.219727	14814.177734
1448.191406	14820.818359
1447.162109	14361.136719
1446.131836	14523.273438
1445.102539	14767.885742
1444.072266	15017.249023
1443.041992	14829.698242
1442.011719	14661.633789
1440.981445	14731.359375
1439.950195	14553.682617
1438.918945	14890.117188
1437.887695	14799.750977
1436.856445	14753.048828
1435.825195	14856.602539
1434.792969	14805.060547
1433.760742	14571.875000
1432.728516	14457.447266
1431.696289	14396.333008
1430.663086	14439.333008
1429.629883	14475.052734
1428.596680	14406.710938
1427.563477	14507.739258
1426.530273	14415.230469
1425.496094	14402.559570
1424.461914	14261.756836
1423.427734	14244.286133
1422.393555	14168.823242
1421.358398	14146.545898
1420.323242	14175.004883
1419.288086	14162.394531
1418.252930	14060.446289
1417.217773	14129.943359
1416.181641	14141.483398
1415.145508	14276.087891
1414.109375	14082.517578
1413.073242	14233.960938
1412.036133	13989.834961
1411.000000	13994.154297
1409.962891	14302.209961
1408.924805	14099.190430
1407.887695	14101.072266
1406.849609	13931.906250
1405.812500	14201.175781
1404.773438	14195.808594
1403.735352	14231.372070
1402.697266	14151.378906
1401.658203	14288.011719
1400.619141	14032.392578
1399.580078	14200.264648
1398.540039	14370.471680
1397.500977	14110.182617
1396.460938	14251.486328
1395.420898	14140.351563
1394.380859	14147.014648
1393.339844	14244.972656
1392.298828	14162.731445
1391.257813	14116.547852
1390.216797	14072.784180
1389.175781	14084.250977
1388.133789	14179.714844
1387.091797	14015.983398
1386.049805	13989.066406
1385.007813	14151.648438
1383.964844	14124.712891
1382.922852	14073.811523
1381.879883	14154.770508
1380.835938	14190.159180
1379.792969	14259.078125
1378.749023	14066.848633
1377.706055	14140.551758
1376.661133	13965.187500
1375.617188	13974.239258
1374.573242	13925.840820
1373.528320	14116.769531
1372.483398	13888.916992
1371.438477	14084.555664
1370.392578	13816.145508
1369.347656	14040.409180
1368.301758	13886.866211
1367.255859	13838.550781
1366.208984	13864.331055
1365.163086	13995.218750
1364.116211	13999.456055
1363.069336	13960.706055
1362.022461	14060.450195
1360.974609	13916.669922
1359.927734	13842.159180
1358.879883	14032.534180
1357.832031	14084.463867
1356.783203	13845.392578
1355.735352	13503.881836
1354.686523	13954.029297
1353.637695	14010.696289
1352.588867	13738.472656
1351.539063	13606.934570
1350.490234	13856.583984
1349.440430	13784.614258
1348.390625	13629.335938
1347.339844	13683.613281
1346.290039	13773.567383
1345.239258	13606.488281
1344.188477	13715.452148
1343.137695	13871.941406
1342.085938	13778.664063
1341.034180	13704.446289
1339.982422	13594.601563
1338.930664	13798.513672
1337.878906	13838.387695
1336.826172	13730.957031
1335.773438	13861.080078
1334.720703	13782.182617
1333.667969	13584.613281
1332.614258	13842.856445
1331.561523	13688.071289
1330.507813	13732.648438
1329.453125	13542.367188
1328.399414	13650.987305
1327.344727	13757.190430
1326.290039	13685.551758
1325.235352	13770.369141
1324.180664	13734.299805
1323.125000	13544.251953
1322.070313	13733.262695
1321.014648	13720.902344
1319.958008	13751.163086
1318.902344	13750.637695
1317.845703	13726.445313
1316.789063	13553.196289
1315.732422	13635.506836
1314.675781	13705.957031
1313.618164	13776.375977
1312.560547	13787.660156
1311.502930	13676.030273
1310.445313	13874.017578
1309.386719	13913.623047
1308.329102	14035.886719
1307.270508	13964.441406
1306.210938	13796.218750
1305.152344	13951.475586
1304.092773	14042.942383
1303.033203	13879.525391
1301.973633	14027.585938
1300.914063	14196.810547
1299.853516	14012.238281
1298.792969	14016.356445
1297.732422	14239.688477
1296.671875	14109.423828
1295.611328	13882.610352
1294.549805	13882.036133
1293.488281	14027.483398
1292.426758	14000.975586
1291.364258	13790.851563
1290.302734	13698.499023
1289.240234	13681.487305
1288.177734	13636.249023
1287.114258	13388.740234
1286.051758	13668.116211
1284.988281	13599.394531
1283.924805	13387.306641
1282.861328	13680.604492
1281.796875	13564.926758
1280.732422	13719.456055
1279.667969	13671.929688
1278.603516	13640.859375
1277.539063	13591.019531
1276.473633	13651.520508
1275.408203	13629.858398
1274.342773	13568.318359
1273.277344	13441.122070
1272.210938	13393.716797
1271.145508	13440.121094
1270.079102	13603.717773
1269.011719	13497.711914
1267.945313	13361.287109
1266.877930	13281.145508
1265.810547	13418.868164
1264.743164	13434.758789
1263.674805	13335.918945
1262.607422	13124.762695
1261.539063	13330.265625
1260.470703	13280.643555
1259.401367	13256.774414
1258.333008	13246.946289
1257.263672	13283.886719
1256.194336	13227.298828
1255.125000	13353.044922
1254.054688	13179.623047
1252.985352	13284.296875
1251.915039	13199.722656
1250.843750	13320.692383
1249.773438	13338.876953
1248.702148	13207.655273
1247.630859	13207.183594
1246.559570	13220.710938
1245.488281	13115.256836
1244.416016	13299.057617
1243.343750	13181.969727
1242.271484	13095.238281
1241.199219	13120.424805
1240.125977	13297.072266
1239.053711	13000.680664
1237.980469	12944.339844
1236.906250	13025.424805
1235.833008	13327.671875
1234.758789	12868.568359
1233.684570	13026.419922
1232.610352	13123.703125
1231.536133	13053.442383
1230.460938	13141.373047
1229.385742	12966.493164
1228.310547	13031.153320
1227.235352	13188.761719
1226.159180	12886.165039
1225.083008	13008.883789
1224.006836	13282.539063
1222.930664	13035.851563
1221.853516	13190.963867
1220.777344	12858.503906
1219.700195	12988.055664
1218.622070	12959.759766
1217.544922	12977.874023
1216.466797	12891.602539
1215.388672	13079.006836
1214.310547	13071.577148
1213.232422	13163.823242
1212.153320	13181.869141
1211.074219	13190.638672
1209.995117	13034.931641
1208.916016	13013.618164
1207.835938	13001.575195
1206.755859	13077.506836
1205.675781	12949.726563
1204.595703	12995.551758
1203.514648	12863.214844
1202.434570	12837.333984
1201.353516	13151.405273
1200.271484	12961.315430
1199.190430	13034.822266
1198.108398	12988.123047
1197.026367	12858.261719
1195.944336	13183.537109
1194.862305	12813.492188
1193.779297	12868.474609
1192.696289	12731.820313
1191.613281	13056.840820
1190.530273	12717.133789
1189.446289	12952.039063
1188.362305	12840.852539
1187.278320	12939.568359
1186.194336	12856.096680
1185.109375	12777.270508
1184.024414	12779.138672
1182.939453	12707.272461
1181.854492	12803.602539
1180.768555	12858.432617
1179.683594	12821.132813
1178.597656	12806.869141
1177.510742	12813.325195
1176.424805	12660.997070
1175.337891	12998.776367
1174.250977	12724.563477
1173.164063	12774.720703
1172.077148	12620.229492
1170.989258	12817.501953
1169.901367	12715.923828
1168.813477	12793.609375
1167.724609	12591.000000
1166.636719	12707.720703
1165.547852	12601.656250
1164.458984	12486.454102
1163.369141	12683.451172
1162.280273	12494.847656
1161.190430	12682.579102
1160.100586	12617.916992
1159.010742	12633.544922
1157.919922	12683.556641
1156.829102	12722.084961
1155.738281	12591.003906
1154.647461	12510.385742
1153.555664	12450.418945
1152.464844	12452.315430
1151.373047	12799.968750
1150.280273	12710.213867
1149.188477	12675.428711
1148.095703	12652.098633
1147.002930	12516.674805
1145.910156	12564.293945
1144.817383	12639.333984
1143.723633	12595.450195
1142.629883	12745.881836
1141.536133	12638.001953
1140.441406	12671.830078
1139.347656	12755.897461
1138.252930	12517.901367
1137.158203	12659.048828
1136.062500	12551.298828
1134.967773	12569.125977
1133.872070	12285.734375
1132.776367	12531.750000
1131.679688	12905.388672
1130.583984	12913.998047
1129.487305	13004.679688
1128.390625	12796.715820
1127.292969	12780.271484
1126.196289	12702.314453
1125.098633	12758.790039
1124.000977	12769.690430
1122.903320	12598.428711
1121.804688	12743.668945
1120.706055	12458.685547
1119.607422	12524.249023
1118.508789	12430.534180
1117.409180	12245.877930
1116.310547	12315.990234
1115.210938	12301.950195
1114.110352	12381.109375
1113.010742	12232.981445
1111.910156	12362.103516
1110.809570	12123.179688
1109.708984	12517.979492
1108.607422	12356.322266
1107.506836	12487.571289
1106.405273	12387.266602
1105.303711	12477.606445
1104.201172	12397.762695
1103.098633	12295.272461
1101.996094	12206.430664
1100.893555	12235.514648
1099.791016	12337.117188
1098.687500	12266.450195
1097.583984	12488.077148
1096.480469	12120.674805
1095.376953	12555.109375
1094.272461	12235.397461
1093.167969	12307.432617
1092.063477	12338.700195
1090.958008	12150.473633
1089.853516	12333.324219
1088.748047	12421.103516
1087.642578	12294.031250
1086.536133	12359.171875
1085.430664	12374.558594
1084.324219	12200.123047
1083.217773	12098.056641
1082.110352	12438.742188
1081.003906	12375.055664
1079.896484	12288.819336
1078.789063	12441.886719
1077.680664	12346.643555
1076.573242	12158.934570
1075.464844	12357.041992
1074.356445	12367.874023
1073.247070	12421.541016
1072.138672	12369.232422
1071.029297	12316.946289
1069.919922	12212.855469
1068.809570	12471.509766
1067.700195	12331.391602
1066.589844	12405.256836
1065.479492	12400.291992
1064.368164	12390.826172
1063.257813	12527.634766
1062.146484	12369.653320
1061.035156	12492.909180
1059.922852	12146.098633
1058.811523	12287.333984
1057.699219	12145.273438
1056.586914	12421.289063
1055.473633	12236.568359
1054.361328	12263.089844
1053.248047	12004.368164
1052.134766	12239.750000
1051.021484	12225.841797
1049.907227	12117.671875
1048.792969	12224.966797
1047.678711	12157.224609
1046.564453	12031.194336
1045.449219	12266.253906
1044.333984	12106.624023
1043.218750	12314.664063
1042.103516	12222.320313
1040.987305	12015.750977
1039.871094	12118.390625
1038.754883	12185.152344
1037.638672	12043.656250
1036.521484	12195.466797
1035.404297	12130.120117
1034.287109	12190.103516
1033.169922	12158.341797
1032.051758	12008.054688
1030.933594	12072.494141
1029.815430	12203.971680
1028.697266	12085.061523
1027.578125	12095.808594
1026.458984	11961.333984
1025.339844	12126.219727
1024.220703	12069.954102
1023.100586	12053.899414
1021.980469	12209.723633
1020.860352	11948.164063
1019.740234	11958.916992
1018.619141	11929.512695
1017.498047	11924.652344
1016.376953	11801.620117
1015.255859	11830.225586
1014.133789	11749.611328
1013.011719	11780.441406
1011.889648	11880.315430
1010.767578	11991.280273
1009.644531	11886.204102
1008.521484	11885.804688
1007.398438	11767.441406
1006.274414	11891.680664
1005.151367	12071.482422
1004.027344	12095.505859
1002.902344	12239.601563
1001.778320	12330.272461
1000.653320	12498.700195
999.528320	12233.706055
998.403320	12211.003906
997.278320	11966.179688
996.152344	11970.194336
995.026367	11872.071289
993.900391	11816.166992
992.773438	11817.990234
991.646484	11788.747070
990.519531	11688.528320
989.392578	11674.849609
988.265625	11765.392578
987.137695	11682.977539
986.009766	11771.260742
984.881836	11688.878906
983.752930	11810.349609
982.624023	11652.686523
981.495117	11701.034180
980.366211	11718.363281
979.236328	11711.336914
978.106445	11797.255859
976.976563	11719.413086
975.846680	11699.116211
974.715820	11796.035156
973.585938	11718.241211
972.454102	11923.425781
971.323242	11797.016602
970.191406	11871.727539
969.060547	11610.633789
967.927734	11718.479492
966.795898	11775.491211
965.663086	11695.608398
964.530273	11704.042969
963.397461	11813.974609
962.264648	11824.583008
961.130859	11612.420898
959.997070	11669.374023
958.863281	11882.827148
957.729492	11792.017578
956.594727	11892.961914
955.459961	11890.313477
954.325195	11799.558594
953.189453	11638.375000
952.053711	11836.132813
950.917969	11908.334961
949.782227	11921.084961
948.646484	11738.011719
947.509766	11763.990234
946.373047	11809.749023
945.235352	11848.889648
944.098633	12127.619141
942.960938	11595.258789
941.823242	11966.202148
940.685547	11686.740234
939.546875	11813.710938
938.408203	11804.485352
937.269531	11874.292969
936.129883	11891.393555
934.991211	11798.770508
933.851563	11807.102539
932.711914	11819.817383
931.571289	11994.793945
930.431641	12055.690430
929.291016	11811.890625
928.149414	11986.749023
927.008789	11922.723633
925.867188	11944.150391
924.725586	12015.933594
923.583984	11822.766602
922.441406	11966.776367
921.299805	11804.342773
920.157227	12002.989258
919.013672	11691.872070
917.871094	11798.600586
916.727539	11719.430664
915.583984	11712.432617
914.439453	11679.210938
913.295898	11600.118164
912.151367	11556.011719
911.006836	11614.573242
909.861328	11592.316406
908.716797	11406.341797
907.571289	11582.750977
906.424805	11649.977539
905.279297	11483.745117
904.132813	11766.888672
902.986328	11648.675781
901.839844	11373.548828
900.692383	11658.702148
899.545898	11791.188477
898.398438	11936.685547
897.250000	11785.890625
896.102539	11835.505859
894.954102	11800.187500
893.805664	11719.174805
892.656250	11651.254883
891.507813	11896.663086
890.358398	11706.919922
889.208984	11869.564453
888.058594	11734.266602
886.908203	11905.524414
885.758789	11711.599609
884.607422	11717.654297
883.457031	11749.772461
882.305664	11579.900391
881.154297	11577.291992
880.002930	11398.849609
878.850586	11680.591797
877.698242	11541.261719
876.545898	11868.398438
875.393555	11553.410156
874.240234	11520.449219
873.086914	11487.501953
871.933594	11744.996094
870.780273	11482.320313
869.625977	11538.222656
868.471680	11461.978516
867.317383	11604.475586
866.162109	11394.023438
865.007813	11679.322266
863.852539	11414.846680
862.696289	11643.759766
861.541016	11582.730469
860.384766	11651.475586
859.228516	11471.559570
858.072266	11553.266602
856.915039	11686.800781
855.757813	11640.948242
854.600586	11640.477539
853.442383	11674.557617
852.285156	11624.417969
851.126953	11565.666016
849.968750	11763.752930
848.809570	11950.960938
847.650391	11706.659180
846.491211	11537.950195
845.332031	11507.308594
844.171875	11670.689453
843.012695	11396.496094
841.851563	11482.257813
840.691406	11481.811523
839.530273	11567.511719
838.369141	11280.667969
837.208008	11504.147461
836.046875	11411.146484
834.884766	11303.125000
833.722656	11253.235352
832.560547	11263.587891
831.397461	11312.640625
830.234375	11200.435547
829.071289	11187.149414
827.908203	11319.986328
826.744141	11259.413086
825.580078	11123.692383
824.416016	11286.513672
823.251953	11292.539063
822.086914	11195.535156
820.921875	11220.889648
819.756836	11136.815430
818.590820	11065.649414
817.425781	11022.390625
816.259766	11109.932617
815.092773	11100.977539
813.926758	11034.166016
812.759766	11031.658203
811.592773	11071.990234
810.424805	11078.039063
809.257813	11105.494141
808.089844	10820.416992
806.920898	10850.056641
805.752930	10997.358398
804.583984	10962.769531
803.415039	10990.215820
802.246094	10932.124023
801.076172	10882.607422
799.906250	10884.404297
798.736328	10975.938477
797.566406	10800.410156
796.395508	10857.749023
795.224609	10987.658203
794.053711	10904.036133
792.881836	10611.298828
791.710938	10828.654297
790.538086	10809.121094
789.366211	10827.984375
788.194336	10893.748047
787.021484	10887.000977
785.848633	10737.458984
784.674805	11026.930664
783.500977	10802.862305
782.327148	10909.019531
781.153320	10868.202148
779.979492	10908.299805
778.804688	10963.276367
777.629883	10835.228516
776.454102	10828.500000
775.279297	10681.396484
774.103516	10832.061523
772.927734	10855.098633
771.750977	10731.467773
770.575195	10790.640625
769.398438	10722.316406
768.220703	10866.422852
767.043945	10857.569336
765.866211	10935.762695
764.688477	10801.665039
763.510742	10718.557617
762.332031	10478.489258
761.153320	10679.718750
759.974609	10849.045898
758.794922	10734.197266
757.616211	10916.150391
756.436523	10731.405273
755.255859	10858.188477
754.076172	10762.503906
752.895508	10800.277344
751.714844	10694.060547
750.533203	10816.500000
749.352539	10807.674805
748.170898	10659.211914
746.988281	10663.117188
745.806641	10802.365234
744.624023	10706.861328
743.441406	10945.384766
742.258789	10632.215820
741.075195	10672.036133
739.891602	10756.197266
738.708008	10572.109375
737.523438	10666.810547
736.339844	10677.030273
735.155273	10678.802734
733.969727	10771.301758
732.785156	10524.133789
731.599609	10614.514648
730.414063	10494.003906
729.227539	10563.268555
728.041992	10628.286133
726.855469	10611.097656
725.667969	10642.367188
724.481445	10296.632813
723.293945	10610.108398
722.106445	10496.101563
720.918945	10601.027344
719.730469	10512.323242
718.541992	10659.269531
717.353516	10526.423828
716.164063	10528.210938
714.975586	10290.343750
713.786133	10430.897461
712.595703	10413.791016
711.406250	10497.529297
710.215820	10430.007813
709.025391	10505.302734
707.833984	10530.178711
706.642578	10500.472656
705.451172	10474.976563
704.259766	10430.610352
703.068359	10421.918945
701.875977	10528.560547
700.683594	10316.496094
699.490234	10257.532227
698.297852	10343.181641
697.104492	10403.650391
695.910156	10583.477539
694.716797	10426.083984
693.522461	10555.576172
692.328125	10597.100586
691.132813	10393.774414
689.938477	10575.484375
688.743164	10414.087891
687.547852	10438.874023
686.351563	10453.194336
685.155273	10521.851563
683.958984	10458.827148
682.762695	10381.206055
681.565430	10401.790039
680.368164	10570.627930
679.170898	10453.366211
677.973633	10450.956055
676.775391	10540.366211
675.577148	10500.382813
674.378906	10562.622070
673.179688	10526.821289
671.980469	10682.843750
670.781250	10857.552734
669.581055	10707.091797
668.381836	10621.285156
667.181641	10750.060547
665.980469	10922.506836
664.780273	10867.937500
663.579102	11015.297852
662.377930	10991.945313
661.175781	10885.381836
659.973633	10770.545898
658.771484	10751.423828
657.569336	10996.354492
656.367188	11097.747070
655.164063	10912.308594
653.960938	10805.905273
652.756836	11040.208984
651.552734	11068.809570
650.348633	11163.834961
649.144531	11323.165039
647.939453	11071.517578
646.735352	11234.942383
645.529297	11267.610352
644.324219	11026.516602
643.118164	11086.168945
641.912109	10953.016602
640.706055	11045.815430
639.499023	11086.772461
638.292969	10974.423828
637.084961	11000.880859
635.877930	10872.039063
634.669922	10946.114258
633.461914	10864.942383
632.253906	10864.499023
631.044922	10781.312500
629.836914	10681.620117
628.626953	10815.611328
627.417969	10718.021484
626.208008	10529.544922
624.998047	10677.938477
623.788086	10634.155273
622.577148	10482.999023
621.366211	10757.248047
620.155273	10511.176758
618.944336	10374.598633
617.732422	10545.514648
616.520508	10538.949219
615.308594	10447.829102
614.095703	10532.008789
612.882813	10533.693359
611.669922	10492.097656
610.457031	10287.746094
609.243164	10474.879883
608.029297	10377.718750
606.815430	10282.660156
605.600586	10471.721680
604.385742	10477.529297
603.170898	10499.792969
601.955078	10285.480469
600.740234	10336.570313
599.524414	10297.165039
598.307617	10194.051758
597.091797	10167.028320
595.875000	10314.666992
594.658203	10186.968750
593.440430	10235.952148
592.222656	10274.645508
591.004883	10214.786133
589.787109	10253.465820
588.568359	10152.599609
587.349609	10222.044922
586.130859	10078.163086
584.912109	10084.029297
583.692383	10038.642578
582.472656	10056.810547
581.251953	10165.125000
580.032227	10185.302734
578.811523	10066.201172
577.589844	10156.008789
576.369141	10235.538086
575.147461	10079.666992
573.925781	10099.837891
572.703125	10207.962891
571.481445	10266.951172
570.258789	10092.812500
569.035156	10196.773438
567.812500	10176.014648
566.588867	10308.512695
565.365234	10165.165039
564.140625	10256.755859
562.916992	10146.156250
561.692383	10229.542969
560.466797	10110.835938
559.242188	10343.143555
558.016602	10144.904297
556.791016	10181.301758
555.564453	10195.251953
554.337891	10158.230469
553.111328	10106.958984
551.884766	10171.855469
550.657227	10016.708008
549.429688	10069.374023
548.202148	10203.462891
546.974609	10133.916016
545.746094	10349.337891
544.517578	10322.517578
543.288086	10218.406250
542.058594	10187.560547
540.829102	10254.331055
539.599609	10203.161133
538.370117	10174.371094
537.139648	10182.168945
535.909180	10226.529297
534.677734	10045.425781
533.446289	10189.292969
532.214844	10292.492188
530.983398	10308.369141
529.750977	10170.023438
528.519531	10358.357422
527.286133	10157.189453
526.053711	10363.686523
524.820313	10300.462891
523.586914	10214.973633
522.353516	10415.232422
521.119141	10429.021484
519.884766	10317.229492
518.650391	10456.577148
517.415039	10456.173828
516.179688	10178.487305
514.944336	10303.603516
513.708984	10171.738281
