#Wave		#Intensity
2109.007813	6744.683594
2107.496094	6754.606934
2105.984375	6715.114258
2104.470703	6827.733398
2102.958984	6723.781250
2101.445313	6682.668457
2099.933594	6677.920410
2098.419922	6764.021973
2096.906250	6747.698730
2095.390625	6671.944336
2093.876953	6629.236816
2092.361328	6644.309570
2090.845703	6689.076172
2089.332031	6705.779785
2087.814453	6679.594727
2086.298828	6739.165527
2084.783203	6739.361816
2083.265625	6630.775391
2081.748047	6642.530273
2080.230469	6682.287598
2078.712891	6529.311035
2077.195313	6636.594238
2075.677734	6738.892090
2074.158203	6722.627441
2072.638672	6561.545410
2071.119141	6716.445313
2069.599609	6726.516602
2068.080078	6665.862793
2066.560547	6692.383789
2065.039063	6740.264648
2063.517578	6666.498047
2061.996094	6701.218262
2060.474609	6653.777832
2058.953125	6575.149902
2057.429688	6751.096680
2055.908203	6672.480957
2054.384766	6543.012695
2052.861328	6651.566406
2051.337891	6640.295410
2049.814453	6758.624023
2048.289063	6607.927246
2046.765625	6713.094238
2045.240234	6616.571777
2043.714844	6636.461914
2042.189453	6639.956543
2040.664063	6643.450195
2039.136719	6573.232422
2037.609375	6619.316895
2036.083984	6704.676758
2034.556641	6652.497070
2033.029297	6690.352051
2031.500000	6585.838867
2029.972656	6659.681152
2028.443359	6592.835938
2026.914063	6522.749023
2025.386719	6599.827148
2023.855469	6541.209961
2022.326172	6556.154297
2020.796875	6701.794922
2019.265625	6484.749512
2017.734375	6571.551758
2016.203125	6575.047363
2014.671875	6534.466797
2013.140625	6590.193848
2011.607422	6549.626953
2010.076172	6571.068359
2008.542969	6647.955078
2007.009766	6522.607910
2005.476563	6615.774902
2003.943359	6495.377441
2002.408203	6537.992188
2000.875000	6606.657227
1999.339844	6584.073730
1997.804688	6564.756836
1996.269531	6486.832031
1994.732422	6550.565430
1993.197266	6597.996094
1991.660156	6528.250000
1990.123047	6406.474609
1988.585938	6561.253418
1987.048828	6537.091309
1985.511719	6581.222656
1983.972656	6461.164551
1982.435547	6536.169922
1980.896484	6507.158691
1979.357422	6492.779785
1977.818359	6470.286133
1976.279297	6550.096680
1974.738281	6425.327637
1973.197266	6574.903809
1971.658203	6474.522461
1970.117188	6497.481934
1968.576172	6509.077637
1967.033203	6535.262695
1965.492188	6470.643555
1963.949219	6347.696777
1962.406250	6429.000488
1960.863281	6513.510254
1959.320313	6471.628906
1957.777344	6523.701660
1956.232422	6522.316895
1954.689453	6540.359375
1953.144531	6500.126465
1951.599609	6474.473633
1950.054688	6450.450195
1948.507813	6568.778809
1946.962891	6494.612305
1945.416016	6464.131348
1943.869141	6512.872070
1942.322266	6564.824219
1940.775391	6422.856934
1939.228516	6503.884277
1937.679688	6416.903809
1936.132813	6514.045410
1934.583984	6470.689453
1933.035156	6517.741211
1931.486328	6537.338867
1929.935547	6531.113770
1928.386719	6424.880371
1926.835938	6463.837402
1925.285156	6493.104004
1923.734375	6475.608398
1922.183594	6543.540527
1920.632813	6514.761230
1919.080078	6479.550293
1917.527344	6479.789063
1915.976563	6438.158691
1914.423828	6477.045898
1912.869141	6416.117676
1911.316406	6475.913574
1909.761719	6521.203613
1908.208984	6432.957031
1906.654297	6384.955078
1905.099609	6481.689453
1903.544922	6469.064941
1901.988281	6284.466309
1900.433594	6410.085449
1898.876953	6391.056641
1897.320313	6407.374023
1895.763672	6410.836426
1894.207031	6489.759766
1892.648438	6387.256836
1891.091797	6429.238770
1889.533203	6424.669922
1887.974609	6319.037109
1886.416016	6446.011719
1884.857422	6446.252441
1883.298828	6436.874023
1881.738281	6445.130371
1880.177734	6430.947754
1878.617188	6410.362305
1877.056641	6375.368164
1875.496094	6468.510254
1873.935547	6308.626953
1872.373047	6436.961426
1870.810547	6427.598633
1869.248047	6327.030762
1867.685547	6426.482422
1866.123047	6357.946289
1864.560547	6401.378906
1862.996094	6332.876465
1861.431641	6377.894043
1859.867188	6523.574707
1858.302734	6391.177734
1856.738281	6380.242676
1855.171875	6359.729492
1853.607422	6441.418945
1852.041016	6433.672363
1850.474609	6342.931641
1848.908203	6443.721191
1847.341797	6311.534668
1845.773438	6389.956055
1844.207031	6345.548340
1842.638672	6581.776855
1841.070313	6440.107422
1839.501953	6306.466309
1837.931641	6332.222168
1836.363281	6365.932617
1834.792969	6426.705078
1833.222656	6366.429199
1831.652344	6508.370605
1830.082031	6478.345215
1828.511719	6448.332031
1826.941406	6348.324707
1825.369141	6412.203613
1823.796875	6398.126465
1822.224609	6414.266113
1820.652344	6376.348145
1819.078125	6468.774902
1817.505859	6392.724121
1815.931641	6607.438477
1814.357422	6370.963867
1812.783203	6398.203125
1811.208984	6438.132324
1809.634766	6295.497070
1808.058594	6352.888184
1806.484375	6330.919434
1804.908203	6464.423340
1803.332031	6350.450195
1801.753906	6352.280762
1800.177734	6390.573242
1798.601563	6298.877441
1797.023438	6302.301270
1795.445313	6416.627930
1793.867188	6298.055664
1792.289063	6420.252441
1790.708984	6475.897461
1789.130859	6433.371094
1787.550781	6514.311523
1785.970703	6473.376953
1784.390625	6519.470215
1782.810547	6461.152832
1781.228516	6322.210938
1779.646484	6417.317383
1778.066406	6510.802246
1776.484375	6433.570313
1774.902344	6402.191406
1773.318359	6454.547363
1771.736328	6489.508789
1770.152344	6442.346680
1768.568359	6488.345703
1766.984375	6398.587891
1765.400391	6559.770508
1763.816406	6541.029785
1762.230469	6392.955078
1760.646484	6505.148438
1759.060547	6494.313965
1757.474609	6505.551758
1755.888672	6567.217285
1754.300781	6600.494141
1752.714844	6463.619629
1751.126953	6566.204102
1749.539063	6623.078613
1747.951172	6648.442383
1746.363281	6651.759277
1744.775391	6639.336914
1743.185547	6675.693359
1741.595703	6713.607422
1740.007813	6572.219238
1738.416016	6698.189453
1736.826172	6753.365234
1735.236328	6858.811523
1733.644531	6736.367188
1732.052734	6849.626465
1730.462891	6780.638184
1728.869141	6893.839355
1727.277344	6994.432129
1725.685547	6842.262207
1724.091797	6898.880859
1722.498047	7016.666504
1720.904297	7044.986816
1719.310547	7076.431641
1717.716797	6966.740234
1716.121094	7048.353516
1714.527344	7112.690918
1712.931641	7021.864258
1711.335938	7112.812988
1709.740234	7220.953125
1708.142578	7200.631836
1706.546875	7307.140625
1704.949219	7163.144043
1703.351563	7286.830566
1701.753906	7294.675293
1700.156250	7302.516602
1698.558594	7244.664063
1696.958984	7357.280273
1695.359375	7399.496582
1693.759766	7366.667480
1692.160156	7463.558105
1690.560547	7543.220703
1688.960938	7561.928711
1687.359375	7527.529785
1685.757813	7452.548340
1684.156250	7502.483398
1682.554688	7736.563965
1680.953125	7841.030762
1679.349609	7978.214844
1677.748047	8012.396973
1676.144531	8098.024414
1674.541016	8353.554688
1672.937500	8411.015625
1671.332031	8575.982422
1669.728516	8729.970703
1668.123047	8781.082031
1666.517578	8732.496094
1664.912109	8872.338867
1663.306641	8907.817383
1661.701172	8977.522461
1660.093750	9003.626953
1658.486328	9179.073242
1656.878906	9256.452148
1655.271484	9529.741211
1653.664063	9443.758789
1652.056641	9726.217773
1650.447266	9870.239258
1648.837891	10017.305664
1647.228516	9967.020508
1645.619141	10216.509766
1644.009766	9923.963867
1642.398438	10196.642578
1640.789063	10219.308594
1639.177734	10251.276367
1637.566406	10422.862305
1635.955078	10406.685547
1634.341797	10587.468750
1632.730469	10732.513672
1631.117188	10778.285156
1629.503906	10917.027344
1627.890625	11010.773438
1626.277344	11030.118164
1624.662109	11232.217773
1623.048828	11248.409180
1621.433594	11323.423828
1619.818359	11542.356445
1618.203125	11784.407227
1616.587891	11933.522461
1614.970703	12016.058594
1613.353516	12205.269531
1611.738281	12304.718750
1610.121094	12380.936523
1608.501953	12641.041016
1606.884766	12822.227539
1605.267578	13023.418945
1603.648438	13184.366211
1602.029297	13363.774414
1600.410156	13766.969727
1598.791016	13674.506836
1597.169922	13707.083984
1595.550781	13694.902344
1593.929688	13741.342773
1592.308594	13593.438477
1590.687500	13405.505859
1589.064453	13529.054688
1587.443359	13493.799805
1585.820313	13669.666992
1584.197266	13578.933594
1582.574219	13517.501953
1580.951172	13548.494141
1579.328125	13637.976563
1577.703125	13565.793945
1576.080078	13890.694336
1574.455078	13989.274414
1572.830078	13904.753906
1571.203125	14100.179688
1569.578125	14341.651367
1567.951172	14387.777344
1566.324219	14479.993164
1564.697266	14464.602539
1563.070313	14653.548828
1561.443359	14814.765625
1559.816406	14751.703125
1558.187500	15081.715820
1556.558594	15018.620117
1554.929688	15046.097656
1553.300781	15012.188477
1551.669922	15091.810547
1550.041016	14873.858398
1548.410156	14968.807617
1546.779297	14780.100586
1545.148438	14548.557617
1543.517578	14517.855469
1541.884766	13839.103516
1540.251953	13852.985352
1538.621094	13603.458008
1536.988281	13681.686523
1535.353516	13585.375000
1533.720703	13674.285156
1532.085938	13477.028320
1530.453125	13584.278320
1528.818359	13570.655273
1527.183594	13471.408203
1525.546875	13320.223633
1523.912109	13407.540039
1522.275391	13244.207031
1520.640625	13236.778320
1519.003906	13165.197266
1517.365234	13128.770508
1515.728516	13051.133789
1514.091797	13071.224609
1512.453125	12871.540039
1510.814453	12707.034180
1509.175781	12568.531250
1507.537109	12300.448242
1505.896484	12059.926758
1504.257813	11760.051758
1502.617188	11478.594727
1500.976563	11431.931641
1499.335938	11406.616211
1497.693359	11146.739258
1496.052734	11180.886719
1494.410156	11144.980469
1492.767578	10947.736328
1491.125000	10829.712891
1489.482422	10704.131836
1487.837891	10653.144531
1486.195313	10542.862305
1484.550781	10523.862305
1482.906250	10512.469727
1481.261719	10368.848633
1479.617188	10580.872070
1477.970703	10505.663086
1476.324219	10339.350586
1474.677734	10543.647461
1473.031250	10492.785156
1471.384766	10520.876953
1469.738281	10480.663086
1468.089844	10375.221680
1466.441406	10400.284180
1464.792969	10137.174805
1463.144531	10165.308594
1461.496094	10067.602539
1459.845703	9966.907227
1458.197266	10007.179688
1456.546875	9985.319336
1454.896484	10104.330078
1453.244141	10018.854492
1451.593750	10024.254883
1449.941406	10040.247070
1448.291016	9954.837891
1446.638672	9936.037109
1444.984375	9868.837891
1443.332031	9576.324219
1441.679688	9572.735352
1440.025391	9596.358398
1438.371094	9603.345703
1436.716797	9607.305664
1435.062500	9682.268555
1433.406250	9550.272461
1431.750000	9437.963867
1430.095703	9152.083008
1428.439453	9116.887695
1426.781250	9065.107422
1425.125000	8978.647461
1423.466797	9098.879883
1421.810547	8949.107422
1420.152344	8892.881836
1418.494141	8881.903320
1416.833984	9172.353516
1415.175781	9076.937500
1413.515625	9017.716797
1411.855469	9047.382813
1410.195313	8923.443359
1408.535156	9032.906250
1406.875000	8991.805664
1405.212891	9087.661133
1403.550781	9108.249023
1401.888672	9173.952148
1400.226563	9350.910156
1398.564453	9242.122070
1396.900391	9289.712891
1395.238281	9173.468750
1393.574219	9174.473633
1391.910156	9195.004883
1390.244141	9251.571289
1388.580078	9057.354492
1386.914063	9185.983398
1385.248047	9368.587891
1383.582031	9296.014648
1381.916016	9302.985352
1380.250000	9534.939453
1378.582031	9391.894531
1376.916016	9439.317383
1375.248047	9483.719727
1373.578125	9366.253906
1371.910156	9376.191406
1370.242188	9423.572266
1368.572266	9556.295898
1366.902344	9615.592773
1365.232422	9709.293945
1363.562500	9813.428711
1361.890625	9766.390625
1360.220703	9792.674805
1358.548828	9928.128906
1356.876953	9891.560547
1355.205078	9745.873047
1353.531250	9770.639648
1351.859375	9620.557617
1350.185547	9702.112305
1348.511719	9747.781250
1346.837891	9933.804688
1345.164063	10210.820313
1343.488281	10068.264648
1341.812500	10269.016602
1340.138672	10475.647461
1338.460938	10621.026367
1336.785156	10682.822266
1335.109375	10959.302734
1333.431641	10970.309570
1331.753906	10827.799805
1330.076172	10816.477539
1328.398438	11112.047852
1326.720703	11073.857422
1325.041016	10958.249023
1323.361328	11127.044922
1321.681641	10892.397461
1320.001953	10760.533203
1318.322266	10906.941406
1316.640625	10736.456055
1314.960938	10490.200195
1313.279297	10324.339844
1311.597656	10207.605469
1309.914063	10144.421875
1308.232422	10234.304688
1306.548828	10025.564453
1304.865234	10021.866211
1303.181641	9773.171875
1301.498047	9643.346680
1299.814453	9712.458008
1298.128906	9679.151367
1296.443359	9522.726563
1294.757813	9691.189453
1293.072266	9626.766602
1291.386719	9572.750000
1289.699219	9607.687500
1288.011719	9528.504883
1286.324219	9582.696289
1284.636719	9343.579102
1282.949219	9294.122070
1281.259766	9351.287109
1279.572266	9460.234375
1277.882813	9407.822266
1276.193359	9143.850586
1274.501953	9245.372070
1272.812500	9369.032227
1271.121094	9139.250000
1269.429688	9190.441406
1267.738281	9111.549805
1266.046875	9171.587891
1264.353516	8878.526367
1262.662109	8845.539063
1260.968750	8870.155273
1259.275391	8906.569336
1257.582031	8728.949219
1255.886719	8693.069336
1254.193359	8522.951172
1252.498047	8442.881836
1250.802734	8302.385742
1249.107422	8324.128906
1247.410156	8235.310547
1245.714844	8336.635742
1244.017578	8362.774414
1242.320313	8465.498047
1240.623047	8350.215820
1238.925781	8146.640625
1237.226563	8152.186523
1235.527344	8179.804688
1233.828125	8061.741699
1232.128906	8255.595703
1230.429688	8109.623535
1228.728516	8228.388672
1227.029297	8183.920410
1225.328125	8155.639160
1223.626953	8071.531250
1221.923828	8196.071289
1220.222656	8097.303223
1218.519531	8121.926758
1216.816406	8309.499023
1215.113281	8171.138184
1213.410156	8257.359375
1211.707031	8085.327148
1210.001953	8002.845703
1208.296875	7930.665039
1206.591797	7893.703613
1204.886719	7842.100098
1203.179688	7925.342773
1201.474609	7840.054688
1199.767578	7940.837402
1198.060547	7735.493652
1196.353516	7935.816406
1194.644531	7887.195313
1192.937500	8036.169922
1191.228516	8051.926758
1189.519531	7981.366699
1187.810547	8041.002930
1186.099609	7982.173340
1184.390625	7816.651855
1182.679688	7882.128906
1180.968750	7686.017090
1179.257813	7752.953125
1177.544922	7891.425781
1175.833984	7661.856445
1174.121094	7752.108887
1172.408203	7804.371094
1170.695313	7809.912598
1168.982422	7913.199219
1167.267578	7955.177246
1165.552734	7954.845703
1163.837891	7993.877930
1162.123047	8250.076172
1160.408203	8243.846680
1158.691406	8317.751953
1156.976563	7929.872559
1155.259766	7716.922852
1153.541016	7553.571289
1151.824219	7346.623047
1150.107422	7267.835449
1148.388672	7368.045410
1146.669922	7127.819824
1144.951172	7140.754883
1143.230469	7011.191406
1141.511719	7150.615234
1139.791016	7195.507813
1138.070313	7116.873047
1136.349609	7009.219238
1134.628906	7045.396973
1132.906250	6923.286133
1131.185547	6792.519531
1129.462891	6779.373047
1127.740234	6695.130371
1126.015625	6581.910645
1124.292969	6500.649902
1122.568359	6512.229492
1120.843750	6465.813477
1119.119141	6490.438965
1117.394531	6402.024414
1115.667969	6415.061523
1113.941406	6362.913574
1112.214844	6510.625000
1110.488281	6425.179199
1108.761719	6409.248047
1107.033203	6315.179688
1105.306641	6345.576172
1103.578125	6251.563477
1101.849609	6039.010742
1100.119141	6099.809082
1098.390625	6046.387207
1096.660156	6001.660156
1094.929688	6023.413574
1093.199219	6056.712891
1091.468750	5941.248047
1089.736328	5789.739746
1088.003906	5941.434082
1086.273438	5795.766113
1084.539063	5837.732910
1082.806641	5882.564941
1081.074219	5764.409668
1079.339844	5744.353027
1077.605469	5767.551270
1075.871094	5774.885254
1074.134766	5741.870605
1072.400391	5674.297363
1070.664063	5721.971191
1068.927734	5762.423828
1067.191406	5766.868164
1065.455078	5715.180176
1063.716797	5690.854004
1061.978516	5666.538574
1060.240234	5626.412598
1058.501953	5524.474121
1056.763672	5666.971680
1055.023438	5514.765137
1053.283203	5477.582520
1051.542969	5539.541504
1049.802734	5475.079590
1048.062500	5542.753418
1046.320313	5399.359863
1044.578125	5571.795410
1042.835938	5339.492188
1041.093750	5534.815430
1039.351563	5611.000977
1037.607422	5576.735352
1035.863281	5574.024902
1034.119141	5578.481934
1032.375000	5534.214355
1030.628906	5469.909180
1028.884766	5547.434570
1027.138672	5556.187012
1025.392578	5536.301270
1023.646484	5499.248047
1021.898438	5512.297363
1020.152344	5433.774902
1018.404297	5564.122070
1016.656250	5538.534180
1014.906250	5467.207031
1013.158203	5394.482910
1011.408203	5391.814941
1009.658203	5472.013672
1007.908203	5487.896973
1006.158203	5602.309082
1004.406250	5416.843262
1002.656250	5602.588379
1000.904297	5641.258301
999.150391	5635.680664
997.398438	5637.236816
995.646484	5687.279297
993.892578	5539.115723
992.138672	5517.884277
990.384766	5525.164551
988.628906	5593.706055
986.875000	5531.166016
985.119141	5646.669922
983.363281	5581.297363
981.607422	5615.597656
979.849609	5554.530762
978.093750	5558.940918
976.335938	5637.318359
974.578125	5527.933105
972.820313	5358.881348
971.060547	5360.487793
969.300781	5322.299316
967.542969	5500.097168
965.781250	5460.472656
964.021484	5516.018555
962.261719	5516.164063
960.500000	5530.503906
958.738281	5472.457031
956.976563	5574.770020
955.214844	5506.808594
953.451172	5553.754395
951.687500	5629.035645
949.923828	5500.152344
948.160156	5291.962402
946.396484	5345.996582
944.630859	5286.679199
942.865234	5186.316895
941.099609	5260.159180
939.333984	5203.732422
937.568359	5086.474121
935.800781	5173.021484
934.033203	5188.797363
932.265625	5213.051270
930.498047	5163.767578
928.730469	5182.360352
926.960938	5195.290527
925.191406	5201.149902
923.421875	5184.403320
921.652344	5164.839355
919.880859	5278.010742
918.109375	5241.493164
916.337891	5392.699219
914.566406	5452.119141
912.794922	5409.942383
911.021484	5435.481445
909.248047	5263.604980
907.474609	5293.394043
905.701172	5225.922852
903.927734	5228.934082
902.152344	5350.274414
900.376953	5311.002930
898.601563	5322.438965
896.826172	5269.113770
895.050781	5229.887207
893.273438	5156.908203
891.496094	5127.571777
889.718750	5168.569336
887.939453	5118.151367
886.162109	5046.670410
884.382813	5056.737305
882.603516	5165.155762
880.824219	5148.498535
879.044922	5057.412598
877.263672	5004.280273
875.482422	5015.746094
873.701172	4945.805664
871.919922	4981.132324
870.138672	5030.470215
868.355469	4981.610840
866.572266	5101.031738
864.789063	4993.301270
863.005859	5067.814941
861.220703	5079.240723
859.435547	5048.635742
857.650391	5089.470703
855.865234	5016.870605
854.080078	5059.092773
852.292969	4985.133301
850.505859	5013.349609
848.718750	5061.137207
846.931641	4967.647949
845.144531	4966.484375
843.355469	4963.923340
841.566406	4990.711914
839.777344	4986.748535
837.988281	5034.471680
836.197266	4829.390625
834.408203	4912.033691
832.617188	4919.257813
830.824219	4969.741211
829.033203	4854.163086
827.240234	4954.855957
825.449219	4818.415039
823.656250	4976.233887
821.861328	4917.913086
820.068359	4954.386719
818.273438	4897.491211
816.478516	5131.755371
814.683594	5037.242188
812.888672	5020.743164
811.091797	4968.059082
809.296875	5040.650391
807.500000	4965.724121
805.701172	4904.743164
803.904297	4982.859375
802.105469	5058.157715
800.308594	4887.383301
798.509766	4950.160156
796.708984	4978.172852
794.910156	5036.730957
793.109375	4989.717285
791.308594	4946.890137
789.507813	4876.321777
787.707031	4920.969238
785.904297	4876.799805
784.101563	4703.650879
782.298828	4642.911621
780.496094	4591.905762
778.693359	4644.881836
776.888672	4656.259277
775.083984	4671.787109
773.279297	4759.334473
771.474609	4749.902832
769.667969	4732.168945
767.861328	4726.899902
766.054688	4565.260254
764.248047	4593.236816
762.441406	4643.330078
760.632813	4642.233887
758.824219	4609.339844
757.015625	4702.241211
755.207031	4701.130371
753.398438	4615.745605
751.587891	4649.186035
749.777344	4681.229004
747.966797	4680.122559
746.154297	4846.025391
744.343750	4842.120117
742.531250	4889.261230
740.718750	5263.264160
738.906250	5646.742676
737.091797	6114.134277
735.277344	6812.855957
733.464844	7432.703125
731.648438	7791.883789
729.833984	7718.419922
728.019531	7073.543457
726.203125	6415.205078
724.386719	5729.651367
722.568359	5504.006348
720.751953	5149.154297
718.933594	4937.505859
717.115234	4768.583496
715.296875	4799.071289
713.478516	4660.497070
711.658203	4737.712891
709.839844	4722.853027
708.019531	4581.646973
706.197266	4535.249512
704.376953	4637.129395
702.554688	4507.022461
700.734375	4560.837402
698.910156	4577.588379
697.087891	4623.131348
695.265625	4746.805664
693.441406	4686.735352
691.617188	4867.894531
689.792969	4796.861816
687.966797	4692.986816
686.140625	4627.506348
684.316406	4667.482422
682.490234	4689.644531
680.662109	4594.103027
678.835938	4576.593262
677.007813	4626.116699
675.179688	4674.249023
673.351563	4674.505371
671.521484	4730.803711
669.693359	4620.353516
667.863281	4740.850586
666.033203	4611.327148
664.201172	4621.155273
662.371094	4716.990234
660.539063	4766.371094
658.707031	4796.623535
656.875000	4844.596680
655.041016	4769.789551
653.208984	4730.472656
651.375000	4782.516113
649.541016	4826.356934
647.705078	4905.604980
645.871094	4803.624023
644.035156	4833.806641
642.199219	4760.485840
640.363281	4779.772461
638.525391	4826.270508
636.689453	4857.778320
634.851563	4799.484375
633.013672	4754.818359
631.173828	4852.947266
629.335938	4800.132813
627.496094	4642.691895
625.656250	4719.035645
623.816406	4746.437988
621.974609	4760.246094
620.132813	4650.486816
618.292969	4648.020020
616.449219	4611.625488
614.607422	4656.658203
612.763672	4671.825684
610.921875	4593.408691
609.078125	4538.078125
607.232422	4583.083984
605.388672	4557.596191
603.542969	4479.279785
601.697266	4440.282715
599.851563	4410.783691
598.005859	4324.433594
596.158203	4328.815918
594.310547	4300.716797
592.462891	4398.455566
590.615234	4327.068359
588.765625	4300.341309
586.916016	4180.339355
585.066406	4209.077637
583.216797	4090.505859
581.367188	4054.402100
579.515625	4168.242676
577.664063	4098.377930
575.812500	4158.150879
573.960938	4084.271973
572.107422	4114.332031
570.253906	4072.876465
568.400391	4128.550781
566.546875	4163.971680
564.693359	4154.887695
562.837891	4075.722656
560.982422	4155.596191
559.126953	4181.545898
557.269531	4198.054688
555.414063	4096.062988
553.556641	4047.967041
551.699219	4133.133789
549.841797	4091.779297
547.982422	4051.789307
546.123047	4089.822021
544.263672	4127.835938
542.404297	4122.815918
540.544922	4090.919189
538.683594	4038.883301
536.822266	4109.110840
534.960938	4054.409180
533.099609	4046.725586
531.236328	3962.533203
529.373047	4062.234863
527.509766	4085.412842
525.646484	4109.920898
523.783203	4407.988281
521.917969	4697.868164
520.052734	5105.563965
518.187500	4837.666992
516.320313	4394.390137
514.455078	4254.037109
512.587891	4111.072754
510.720703	3882.493896
508.853516	3894.948730
506.984375	3883.310791
505.115234	3778.030273
503.246094	3878.776123
501.376953	3843.080078
499.507813	3792.695557
497.636719	3759.709961
495.765625	3863.035156
493.894531	3880.812500
492.021484	3809.096680
490.150391	3756.108887
488.277344	3820.621338
486.404297	3756.978516
484.531250	3782.764648
482.656250	3820.544189
480.781250	3736.941162
478.906250	3842.713867
477.031250	3824.463623
475.156250	3786.231445
473.279297	3746.684814
471.402344	3705.824951
469.525391	3672.974854
467.648438	3775.946533
465.769531	3749.750488
463.890625	3879.269775
462.011719	3815.807617
460.132813	3759.026611
458.251953	3841.905518
456.371094	3858.268555
454.490234	3801.517578
452.609375	3731.504395
450.728516	3791.724121
448.845703	3712.448730
446.962891	3819.121094
445.080078	3737.221680
443.197266	3742.962402
441.312500	3752.681152
439.427734	3701.368652
437.542969	3782.714600
435.658203	3710.202881
433.771484	3741.130371
431.886719	3773.368408
430.000000      3698.260254
428.111328	3713.270752
426.224609	3689.865479
424.335938	3636.016602
422.447266	3645.735352
420.558594	3700.447754
418.669922	3667.804932
416.779297	3623.271973
414.888672	3681.917480
412.998047	3671.779541
411.107422	3647.105469
409.214844	3717.596436
407.324219	3678.389160
405.431641	3677.507568
403.537109	3557.769775
401.644531	3621.612305
399.750000	3567.944824
