#Wave		#Intensity
2109.224609	3139.230225
2107.712891	2927.522461
2106.201172	3069.099854
2104.687500	3048.597168
2103.175781	3074.384521
2101.662109	3019.186279
2100.150391	3025.142822
2098.636719	2998.060303
2097.123047	3010.624756
2095.607422	2957.139160
2094.093750	2999.420654
2092.578125	3010.326172
2091.064453	3031.127441
2089.548828	3055.218994
2088.033203	2985.288330
2086.517578	3004.432617
2085.000000	3058.189697
2083.484375	3110.275391
2081.966797	3017.322510
2080.449219	2998.549561
2078.931641	2899.072021
2077.414063	3026.902100
2075.894531	2999.906738
2074.376953	3037.122559
2072.857422	3029.886230
2071.337891	2993.035156
2069.818359	3007.197510
2068.298828	3078.918945
2066.777344	2900.665527
2065.257813	3026.631348
2063.736328	3030.912354
2062.214844	3015.471680
2060.693359	2958.963867
2059.171875	3037.173584
2057.648438	2982.327393
2056.126953	3032.586426
2054.603516	3041.785156
2053.080078	2991.896973
2051.556641	3050.325928
2050.033203	2992.254883
2048.507813	3011.295166
2046.984375	2977.854004
2045.458984	3049.351318
2043.933594	3110.983398
2042.408203	3070.987549
2040.882813	3008.071533
2039.355469	2966.476563
2037.830078	2974.030273
2036.302734	2939.009766
2034.775391	3085.709229
2033.248047	3003.217773
2031.718750	3010.756836
2030.191406	2977.394531
2028.662109	3020.918701
2027.134766	3008.826416
2025.605469	2973.850830
2024.076172	2987.926270
2022.544922	2951.335938
2021.015625	3027.495850
2019.484375	2997.446533
2017.955078	2987.007813
2016.423828	3019.025879
2014.892578	2956.348877
2013.359375	2976.935059
2011.828125	2951.823730
2010.294922	3016.449951
2008.761719	3022.330811
2007.230469	2925.474854
2005.695313	3040.606201
2004.162109	2950.307617
2002.628906	2957.827148
2001.093750	2922.981201
1999.558594	2951.679932
1998.023438	2944.536621
1996.488281	3017.181396
1994.953125	2948.166016
1993.417969	2921.497070
1991.880859	3018.508789
1990.343750	2967.432861
1988.806641	2908.245850
1987.269531	2891.365234
1985.732422	2949.280273
1984.193359	2872.254395
1982.656250	2980.528564
1981.117188	2981.519531
1979.578125	2875.295410
1978.039063	3019.230225
1976.500000	2960.132568
1974.958984	2946.516113
1973.417969	2945.889648
1971.878906	2953.377441
1970.337891	3004.666260
1968.796875	2948.878418
1967.253906	2909.331055
1965.712891	2978.431396
1964.169922	2935.652588
1962.626953	2939.891113
1961.083984	2966.812500
1959.541016	2933.782959
1957.998047	2972.031494
1956.455078	2887.197510
1954.910156	2967.531982
1953.365234	2955.572021
1951.820313	2891.832764
1950.275391	2931.667236
1948.730469	2942.368408
1947.183594	3016.136963
1945.638672	2868.360352
1944.091797	2867.752197
1942.544922	2918.862549
1940.998047	2921.475342
1939.449219	3053.328613
1937.902344	2936.388672
1936.353516	2835.646729
1934.804688	2938.373047
1933.255859	2876.412842
1931.707031	2980.700684
1930.158203	2878.420898
1928.607422	3014.926514
1927.058594	2961.066162
1925.507813	2937.864746
1923.957031	2946.915283
1922.406250	2920.502930
1920.853516	2919.884521
1919.302734	2861.267578
1917.750000	2928.312744
1916.197266	2955.069336
1914.644531	2820.809570
1913.091797	2952.208740
1911.539063	2921.005859
1909.984375	2864.071777
1908.431641	2934.248047
1906.876953	2819.434326
1905.322266	2902.454102
1903.767578	2933.993408
1902.210938	2910.870117
1900.656250	2878.114746
1899.099609	2880.719238
1897.542969	2889.747559
1895.986328	2934.103516
1894.429688	2885.314209
1892.873047	2841.361328
1891.314453	2829.525635
1889.755859	2897.925781
1888.199219	2874.853271
1886.640625	2800.464600
1885.080078	2868.826904
1883.521484	2917.921387
1881.960938	2978.215332
1880.402344	2847.777100
1878.841797	2957.729492
1877.281250	2961.910156
1875.720703	2873.198242
1874.158203	2883.799561
1872.597656	2863.979492
1871.035156	2949.803711
1869.472656	2933.178467
1867.910156	2910.160400
1866.347656	2872.756348
1864.783203	2886.542236
1863.220703	2879.536865
1861.656250	2899.709229
1860.091797	2919.873047
1858.527344	2860.135986
1856.962891	2902.664307
1855.396484	2905.245605
1853.832031	2820.000000
1852.265625	2832.176270
1850.699219	2829.981934
1849.132813	2819.809326
1847.566406	2973.975098
1845.998047	2831.379395
1844.431641	2861.082764
1842.863281	2917.879395
1841.294922	2874.221436
1839.726563	2867.239258
1838.156250	2829.984131
1836.587891	2858.062744
1835.017578	2895.686035
1833.449219	2909.406738
1831.878906	2810.081299
1830.306641	2769.693359
1828.736328	2899.606689
1827.166016	2840.123535
1825.593750	2947.696045
1824.021484	2810.296387
1822.449219	2858.995850
1820.876953	2848.853516
1819.304688	2986.532227
1817.730469	2852.417969
1816.158203	2905.833252
1814.583984	2878.216553
1813.009766	2874.432617
1811.435547	2859.535889
1809.859375	2916.078857
1808.285156	2847.218750
1806.708984	2792.668213
1805.132813	2907.886230
1803.556641	2810.521729
1801.980469	2854.328857
1800.404297	2855.311523
1798.826172	2829.347412
1797.248047	2863.614258
1795.671875	2853.502930
1794.093750	2822.803223
1792.513672	2838.044189
1790.935547	2775.692383
1789.355469	2819.431885
1787.777344	2803.009277
1786.197266	2849.888916
1784.617188	2812.899658
1783.035156	2783.834473
1781.455078	2889.199707
1779.873047	2795.307129
1778.292969	2797.877930
1776.710938	2857.341797
1775.128906	2867.798584
1773.544922	2843.496826
1771.962891	2803.411377
1770.378906	2725.445557
1768.794922	2765.916504
1767.212891	2741.656250
1765.626953	2829.447998
1764.042969	2832.005371
1762.458984	2821.942627
1760.873047	2821.346436
1759.287109	2850.707764
1757.701172	2763.404053
1756.115234	2759.667969
1754.529297	2781.144775
1752.941406	2871.929443
1751.355469	2734.292725
1749.767578	2820.324463
1748.179688	2818.153809
1746.591797	2867.927734
1745.001953	2793.356445
1743.414063	2854.128174
1741.824219	2825.209473
1740.234375	2830.903076
1738.644531	2846.028320
1737.054688	2810.841309
1735.462891	2789.814209
1733.873047	2861.508301
1732.281250	2849.905762
1730.689453	2857.156494
1729.097656	2812.581055
1727.505859	2813.556152
1725.912109	2867.901367
1724.320313	2815.504395
1722.726563	2811.770508
1721.132813	2862.943848
1719.539063	2920.368896
1717.945313	2852.323730
1716.349609	2878.371826
1714.755859	2833.875000
1713.160156	2942.970459
1711.564453	2928.246826
1709.968750	2882.200928
1708.371094	2944.233887
1706.775391	2942.044678
1705.177734	2977.426270
1703.580078	2953.319580
1701.982422	2971.470947
1700.384766	2895.749268
1698.787109	2888.879639
1697.187500	2885.139893
1695.587891	2929.868164
1693.990234	2882.354492
1692.390625	2891.120361
1690.789063	2873.320801
1689.189453	2872.711914
1687.587891	2912.709229
1685.988281	2835.581055
1684.386719	2962.990967
1682.785156	2976.409912
1681.181641	2941.448975
1679.580078	3067.194824
1677.976563	3019.750732
1676.373047	2903.710449
1674.769531	2893.739746
1673.166016	2943.007324
1671.562500	2936.149170
1669.957031	3044.595459
1668.353516	2997.215332
1666.748047	2923.377930
1665.142578	3033.314697
1663.537109	3026.443604
1661.929688	3053.817871
1660.324219	2984.698730
1658.716797	3036.962891
1657.109375	3092.315674
1655.501953	3124.317383
1653.894531	3123.653809
1652.285156	3164.961914
1650.677734	3131.651855
1649.068359	3148.078613
1647.458984	3153.623779
1645.849609	3218.187256
1644.240234	3223.714600
1642.628906	3136.088379
1641.019531	3228.552979
1639.408203	3210.796143
1637.796875	3214.767822
1636.185547	3318.014648
1634.572266	3283.189697
1632.960938	3305.749512
1631.347656	3301.945801
1629.734375	3372.537598
1628.121094	3237.009277
1626.507813	3323.076660
1624.894531	3361.091553
1623.279297	3402.187256
1621.664063	3421.590088
1620.048828	3496.708496
1618.433594	3523.820313
1616.818359	3530.805908
1615.203125	3633.697021
1613.585938	3577.246094
1611.968750	3632.148926
1610.351563	3742.681396
1608.734375	3766.613281
1607.117188	3847.709473
1605.498047	3788.181885
1603.878906	3824.444580
1602.261719	3780.389404
1600.640625	3884.571777
1599.021484	3933.138916
1597.402344	3835.072754
1595.781250	3834.254395
1594.162109	3828.808350
1592.541016	3821.822266
1590.919922	3965.951904
1589.296875	3997.479736
1587.675781	4021.287354
1586.052734	3981.904053
1584.429688	4121.253418
1582.806641	3997.146973
1581.183594	3991.673096
1579.560547	3781.425293
1577.935547	3788.313965
1576.312500	3747.489990
1574.687500	3725.147461
1573.062500	3745.888184
1571.435547	3637.425537
1569.810547	3650.486816
1568.183594	3734.261230
1566.558594	3610.499512
1564.931641	3632.777832
1563.304688	3552.108643
1561.675781	3638.903320
1560.048828	3572.088379
1558.419922	3623.527100
1556.791016	3685.688965
1555.162109	3684.899658
1553.533203	3662.628662
1551.904297	3625.026367
1550.273438	3536.825928
1548.642578	3482.398438
1547.011719	3492.383789
1545.380859	3459.447021
1543.750000	3470.964844
1542.119141	3434.982178
1540.486328	3451.095215
1538.853516	3484.046875
1537.220703	3426.647949
1535.587891	3404.481689
1533.955078	3411.403320
1532.320313	3406.080811
1530.685547	3338.038086
1529.052734	3318.967773
1527.416016	3353.425293
1525.781250	3383.281494
1524.146484	3255.689941
1522.509766	3296.250977
1520.873047	3318.460205
1519.236328	3317.746826
1517.599609	3356.740234
1515.962891	3345.330811
1514.324219	3300.342285
1512.687500	3288.948975
1511.048828	3286.715576
1509.410156	3226.512451
1507.771484	3280.725830
1506.130859	3200.725830
1504.492188	3201.561523
1502.851563	3251.171631
1501.210938	3152.942139
1499.570313	3173.593018
1497.927734	3128.735352
1496.287109	3030.594727
1494.644531	3034.509521
1493.001953	3088.656738
1491.359375	2958.626953
1489.716797	3014.288330
1488.074219	2993.861572
1486.429688	2933.899170
1484.785156	2997.132080
1483.140625	2867.260986
1481.496094	2930.480469
1479.851563	2929.847900
1478.207031	2991.506836
1476.560547	2913.393066
1474.914063	2987.177490
1473.267578	2933.391113
1471.621094	2906.951416
1469.972656	2877.487793
1468.326172	2937.559082
1466.677734	2889.896973
1465.029297	2933.255615
1463.380859	2934.137695
1461.732422	2956.243408
1460.082031	2990.464600
1458.431641	3011.032715
1456.783203	2910.388428
1455.132813	2964.288086
1453.480469	2937.901855
1451.830078	2975.116943
1450.177734	2975.986084
1448.527344	2904.211670
1446.875000	2989.827393
1445.220703	3031.536133
1443.568359	2959.795654
1441.916016	3024.173584
1440.261719	2960.023926
1438.607422	2852.070313
1436.953125	2982.917480
1435.298828	2942.989990
1433.642578	2937.820068
1431.988281	2870.737061
1430.332031	2871.623535
1428.675781	2893.641846
1427.019531	2838.684326
1425.361328	2830.523682
1423.705078	2826.891602
1422.046875	2732.771729
1420.388672	2821.139404
1418.730469	2778.316162
1417.072266	2773.190430
1415.412109	2752.998047
1413.753906	2708.710205
1412.093750	2854.220947
1410.433594	2850.587891
1408.773438	2890.616699
1407.111328	2867.409180
1405.451172	2809.599365
1403.789063	2914.305664
1402.126953	2855.006104
1400.464844	2872.430664
1398.802734	2792.115723
1397.138672	2856.145996
1395.474609	2822.459229
1393.812500	2865.418457
1392.146484	2758.133545
1390.482422	2819.110352
1388.818359	2838.015869
1387.152344	2745.819092
1385.486328	2809.760010
1383.820313	2714.607666
1382.154297	2825.035889
1380.488281	2831.918213
1378.820313	2816.303223
1377.154297	2823.184082
1375.486328	2788.090332
1373.818359	2806.963135
1372.148438	2887.258301
1370.480469	2849.177002
1368.810547	2817.102539
1367.140625	2904.828857
1365.470703	2887.725830
1363.800781	2879.610107
1362.130859	2768.249512
1360.458984	2861.892578
1358.787109	2876.222412
1357.115234	2856.152344
1355.443359	2876.456787
1353.771484	2805.574707
1352.097656	2881.172852
1350.423828	2890.999268
1348.751953	2856.009277
1347.076172	2804.606934
1345.402344	2803.991455
1343.728516	2783.969971
1342.052734	2798.282959
1340.376953	2843.923096
1338.701172	2735.891357
1337.025391	2794.947510
1335.347656	2752.582275
1333.671875	2734.087891
1331.994141	2797.576172
1330.316406	2767.158447
1328.638672	2729.304688
1326.960938	2858.287842
1325.281250	2747.462402
1323.601563	2734.947021
1321.921875	2816.211670
1320.242188	2703.979736
1318.562500	2743.555420
1316.880859	2784.600830
1315.201172	2795.884521
1313.519531	2725.386475
1311.837891	2732.218262
1310.154297	2722.698486
1308.472656	2766.673828
1306.789063	2757.150146
1305.105469	2688.222168
1303.421875	2736.629883
1301.738281	2796.892090
1300.054688	2762.137451
1298.369141	2774.882324
1296.683594	2793.555664
1294.998047	2890.832031
1293.312500	2786.389160
1291.626953	2828.768066
1289.939453	2758.476563
1288.253906	2759.348389
1286.566406	2742.440186
1284.878906	2789.234131
1283.189453	2788.616699
1281.501953	2765.790039
1279.812500	2763.697266
1278.123047	2683.167236
1276.433594	2654.459717
1274.744141	2670.144043
1273.052734	2722.795166
1271.363281	2769.508301
1269.671875	2721.587891
1267.980469	2752.021973
1266.289063	2687.872070
1264.595703	2840.918457
1262.904297	2720.650146
1261.210938	2702.325928
1259.517578	2728.300293
1257.824219	2766.070801
1256.128906	2727.088135
1254.435547	2657.139893
1252.740234	2656.549316
1251.044922	2669.230957
1249.349609	2611.136475
1247.652344	2625.296143
1245.957031	2593.763916
1244.259766	2597.606689
1242.562500	2653.005371
1240.865234	2699.542480
1239.167969	2650.351563
1237.468750	2658.593750
1235.769531	2613.848633
1234.072266	2650.052002
1232.371094	2680.354492
1230.671875	2625.338135
1228.972656	2687.981934
1227.271484	2609.466064
1225.570313	2669.145264
1223.869141	2689.122070
1222.167969	2547.484619
1220.464844	2655.607910
1218.763672	2635.924561
1217.060547	2476.775146
1215.357422	2612.729492
1213.654297	2663.508057
1211.949219	2614.496094
1210.246094	2566.972656
1208.541016	2525.336182
1206.835938	2558.493408
1205.130859	2519.808838
1203.423828	2523.641357
1201.718750	2580.219238
1200.011719	2553.273926
1198.304688	2532.198486
1196.597656	2503.811035
1194.888672	2535.455566
1193.181641	2533.423828
1191.472656	2613.333740
1189.763672	2573.249268
1188.054688	2540.495605
1186.343750	2545.774658
1184.634766	2590.522949
1182.923828	2554.863281
1181.212891	2527.987061
1179.501953	2613.614502
1177.791016	2595.500244
1176.078125	2548.188232
1174.365234	2601.633789
1172.652344	2568.937500
1170.939453	2685.103516
1169.226563	2601.338623
1167.511719	2520.528320
1165.798828	2569.543945
1164.083984	2615.621094
1162.369141	2492.589600
1160.652344	2467.253906
1158.937500	2548.290039
1157.220703	2540.432861
1155.503906	2480.150391
1153.787109	2507.255859
1152.070313	2445.552002
1150.351563	2468.286377
1148.632813	2514.290527
1146.916016	2491.903076
1145.195313	2424.439697
1143.476563	2410.806152
1141.757813	2349.205811
1140.037109	2418.438232
1138.316406	2409.173584
1136.595703	2430.420410
1134.875000	2399.370850
1133.152344	2381.403809
1131.429688	2364.896240
1129.708984	2351.298828
1127.984375	2329.000732
1126.261719	2373.447510
1124.539063	2300.388916
1122.814453	2323.070068
1121.089844	2255.854492
1119.365234	2245.197510
1117.640625	2301.204834
1115.914063	2289.093262
1114.187500	2168.352051
1112.462891	2314.122314
1110.734375	2191.981934
1109.007813	2271.096436
1107.281250	2196.776611
1105.552734	2145.639404
1103.824219	2194.333496
1102.095703	2241.559082
1100.367188	2287.317139
1098.636719	2308.480469
1096.908203	2359.982666
1095.177734	2407.126953
1093.447266	2283.795166
1091.714844	2294.829834
1089.984375	2274.093994
1088.251953	2197.069336
1086.519531	2199.456055
1084.787109	2222.041992
1083.054688	2162.391602
1081.320313	2150.361572
1079.585938	2165.733154
1077.851563	2227.227539
1076.117188	2203.660400
1074.382813	2190.190186
1072.648438	2139.270752
1070.912109	2222.318115
1069.175781	2164.214355
1067.439453	2124.851807
1065.701172	2176.180908
1063.964844	2182.879395
1062.226563	2191.012939
1060.488281	2161.747314
1058.750000	2179.947266
1057.011719	2116.193848
1055.271484	2114.273193
1053.531250	2132.470947
1051.791016	2080.264404
1050.050781	2107.079102
1048.310547	2102.289551
1046.568359	2116.165527
1044.826172	2165.918213
1043.083984	2083.627686
1041.341797	2083.150879
1039.599609	2152.957275
1037.855469	2146.728516
1036.113281	2086.021973
1034.369141	2121.378418
1032.623047	2053.539795
1030.878906	2192.041992
1029.132813	2102.732178
1027.386719	2054.992432
1025.640625	2043.067627
1023.894531	2098.423584
1022.148438	2173.788818
1020.400391	2117.491211
1018.652344	2154.196045
1016.904297	2173.722900
1015.156250	2141.769287
1013.406250	2098.394775
1011.658203	2145.072998
1009.908203	2143.151611
1008.158203	2106.947998
1006.408203	2016.492920
1004.656250	2020.312744
1002.904297	2034.122803
1001.152344	2059.343262
999.400391	2158.745361
997.648438	2091.204590
995.896484	2047.939209
994.142578	2107.352051
992.388672	2098.313965
990.634766	2093.555176
988.878906	2144.366943
987.125000	2076.921387
985.369141	2137.682129
983.613281	2091.626465
981.857422	2128.155762
980.099609	2121.972412
978.343750	2105.831543
976.585938	2106.768311
974.828125	2067.882813
973.070313	2036.124268
971.310547	2142.270264
969.552734	2077.820801
967.792969	2073.078369
966.033203	2054.132324
964.273438	2045.136230
962.511719	2132.697754
960.750000	2078.260986
958.990234	2080.619141
957.226563	2075.881104
955.464844	2076.819824
953.703125	2050.810547
951.939453	2087.202393
950.175781	2075.378418
948.412109	2098.991943
946.648438	1999.319336
944.882813	2098.020020
943.117188	2094.701416
941.351563	2186.254150
939.585938	2114.965576
937.820313	2127.213135
936.052734	2087.100586
934.285156	2143.202881
932.517578	2203.521973
930.750000	2143.622803
928.982422	2212.395508
927.212891	2152.521729
925.443359	2195.825439
923.673828	2223.569580
921.904297	2163.734131
920.132813	2175.939941
918.361328	2080.850342
916.591797	2180.574463
914.818359	2165.957275
913.046875	2099.150146
911.275391	2167.771240
909.501953	2177.137695
907.728516	2156.895020
905.955078	2115.520508
904.179688	2116.437256
902.406250	2113.127197
900.630859	2137.987061
898.855469	2098.062744
897.080078	2075.049805
895.302734	2073.159180
893.525391	2006.541870
891.750000	2049.684814
889.970703	2070.303955
888.193359	2110.599121
886.416016	2046.846069
884.636719	2026.692139
882.857422	2055.727539
881.078125	1958.315552
879.296875	1957.858643
877.517578	1985.484985
875.736328	1956.944946
873.955078	1943.856567
872.173828	1974.272583
870.390625	1956.977295
868.609375	1883.588989
866.826172	1946.247681
865.042969	1874.297607
863.259766	1887.875000
861.474609	1922.463989
859.689453	1943.027832
857.904297	1924.366211
856.119141	1856.705078
854.333984	1968.262939
852.546875	1976.199829
850.761719	1943.554688
848.974609	1952.892212
847.185547	1927.260254
845.398438	1891.852417
843.609375	1916.572144
841.822266	1896.556763
840.031250	1889.125977
838.242188	1936.179810
836.453125	2001.367432
834.662109	1978.557495
832.871094	1899.919189
831.080078	1888.308472
829.289063	1917.167236
827.496094	1887.422729
825.703125	1896.742554
823.910156	1917.212402
822.117188	1929.308594
820.324219	1928.855591
818.529297	1979.956909
816.734375	1980.885010
814.939453	1935.853271
813.144531	2016.156128
811.347656	1883.438110
809.550781	1895.520996
807.755859	1957.687988
805.957031	1914.104858
804.160156	1890.012207
802.361328	1839.513062
800.564453	1893.293579
798.765625	1892.848267
796.964844	1836.825684
795.166016	1783.607544
793.365234	1792.909180
791.564453	1829.975220
789.763672	1839.261230
787.962891	1769.438354
786.160156	1837.007568
784.359375	1778.314941
782.556641	1816.726807
780.751953	1767.771606
778.949219	1781.216553
777.144531	1822.371826
775.339844	1844.110229
773.535156	1782.727539
771.730469	1861.243774
769.925781	1845.574951
768.119141	1852.060547
766.312500	1771.358887
764.505859	1741.886353
762.697266	1856.282593
760.890625	1811.591797
759.082031	1791.808105
757.273438	1831.470093
755.464844	1788.198120
753.654297	1859.618408
751.845703	1808.072388
750.035156	1774.502686
748.224609	1826.546509
746.412109	1871.664185
744.601563	1861.562012
742.789063	1793.520020
740.976563	1797.233887
739.164063	1748.544556
737.349609	1795.005249
735.537109	1789.067261
733.722656	1758.328003
731.908203	1756.534302
730.091797	1807.080444
728.277344	1754.325806
726.460938	1763.547363
724.644531	1757.624390
722.828125	1750.328003
721.009766	1776.052002
719.193359	1745.372803
717.375000	1684.456299
715.556641	1696.429932
713.736328	1687.781372
711.917969	1727.229980
710.097656	1736.436890
708.277344	1759.373657
706.457031	1723.255615
704.636719	1715.983032
702.814453	1730.673218
700.992188	1752.216797
699.169922	1668.120728
697.347656	1695.154663
695.523438	1697.494751
693.699219	1714.912720
691.875000	1725.469727
690.050781	1701.767090
688.226563	1727.390259
686.400391	1702.328613
684.574219	1755.323364
682.748047	1685.093506
680.921875	1702.484497
679.095703	1733.549316
677.267578	1746.816528
675.439453	1735.460815
673.611328	1672.154541
671.781250	1751.039185
669.953125	1720.557495
668.123047	1788.462524
666.292969	1848.139404
664.460938	1819.021606
662.630859	1803.570679
660.798828	1833.171265
658.966797	1823.182617
657.134766	1803.648193
655.302734	1822.315186
653.468750	1765.970459
651.634766	1791.453979
649.800781	1818.288330
647.966797	1926.872314
646.130859	1843.307983
644.294922	1861.937988
642.458984	1903.708496
640.623047	1895.086670
638.787109	1861.969116
636.949219	1920.038452
635.111328	1859.721680
633.273438	1856.558350
631.435547	1794.925415
629.595703	1843.438477
627.757813	1777.760254
625.917969	1820.818726
624.076172	1766.044800
622.236328	1762.907471
620.394531	1818.158936
618.552734	1808.222778
616.710938	1772.504272
614.869141	1739.516479
613.025391	1755.380249
611.183594	1734.618042
609.339844	1701.662476
607.494141	1703.967651
605.650391	1780.810913
603.804688	1629.988037
601.958984	1649.918213
600.113281	1650.878662
598.267578	1616.635498
596.419922	1644.676147
594.572266	1648.343384
592.724609	1592.476929
590.876953	1657.025024
589.027344	1601.182983
587.179688	1612.968872
585.330078	1599.066528
583.480469	1550.034912
581.628906	1623.972900
579.779297	1579.010620
577.927734	1663.709351
576.076172	1616.058716
574.222656	1595.426025
572.371094	1588.297485
570.517578	1643.231934
568.664063	1599.677612
566.810547	1600.643799
564.955078	1571.949829
563.101563	1550.008667
561.246094	1545.595581
559.390625	1541.184448
557.533203	1571.793945
555.677734	1548.526855
553.820313	1514.500854
551.962891	1531.635376
550.105469	1531.269043
548.246094	1528.212280
546.386719	1487.498657
544.527344	1499.244385
542.667969	1566.100342
540.808594	1545.566040
538.947266	1574.756592
537.085938	1554.229858
535.224609	1526.997803
533.363281	1569.598267
531.500000	1558.483765
529.638672	1552.742554
527.775391	1615.431763
525.910156	1780.037354
524.046875	1908.354736
522.181641	2539.394775
520.316406	3230.452148
518.451172	3092.986816
516.585938	2264.253174
514.718750	1892.676758
512.851563	1702.063843
510.984375	1605.260254
509.117188	1595.506348
507.250000	1616.535278
505.380859	1593.404297
503.511719	1643.849731
501.642578	1638.107056
499.771484	1601.618164
497.902344	1541.088013
496.031250	1571.453003
494.160156	1551.037354
492.287109	1553.337036
490.416016	1550.294312
488.542969	1571.282837
486.669922	1534.870239
484.796875	1541.174316
482.921875	1527.464844
481.046875	1525.765137
479.171875	1485.397827
477.296875	1533.032471
475.421875	1567.316650
473.544922	1594.922241
471.667969	1561.237183
469.791016	1546.213379
467.914063	1541.848389
466.035156	1556.121704
464.156250	1471.906006
462.277344	1552.714844
460.398438	1536.380371
458.519531	1500.105469
456.638672	1494.427612
454.757813	1467.484619
452.876953	1483.080078
450.994141	1492.024902
449.113281	1457.131714
447.230469	1470.062256
445.347656	1437.846313
443.462891	1485.285645
441.580078	1467.678467
439.695313	1468.653442
437.810547	1455.037598
435.925781	1420.211304
434.039063	1517.975830
432.152344	1479.174683
430.267578	1469.544434
428.378906	1485.089722
426.492188	1479.435913
424.603516	1483.053711
422.714844	1513.146606
420.826172	1507.489868
418.937500	1483.310913
417.046875	1457.820557
415.158203	1477.309692
413.265625	1532.490234
411.375000	1542.698364
409.484375	1422.061401
407.591797	1507.605225
405.699219	1515.169800
403.806641	1549.144165
401.912109	1468.231445
400.019531	1466.559570
