#Wave		#Intensity
2109.224609	7819.958008
2107.712891	7886.116699
2106.201172	7689.285645
2104.687500	7636.372070
2103.175781	7738.854004
2101.662109	7671.080078
2100.150391	7712.379395
2098.636719	7732.187500
2097.123047	7722.260742
2095.607422	7702.431152
2094.093750	7634.738770
2092.578125	7642.993652
2091.064453	7715.597168
2089.548828	7537.416992
2088.033203	7603.414063
2086.517578	7649.595703
2085.000000	7588.596680
2083.484375	7595.203125
2081.966797	7494.692871
2080.449219	7572.161621
2078.931641	7534.292969
2077.414063	7507.968750
2075.894531	7476.716309
2074.376953	7606.798340
2072.857422	7636.432129
2071.337891	7560.746094
2069.818359	7517.993652
2068.298828	7529.535645
2066.777344	7590.403320
2065.257813	7578.908691
2063.736328	7518.108887
2062.214844	7491.844727
2060.693359	7457.377441
2059.171875	7514.910156
2057.648438	7505.086426
2056.126953	7531.388184
2054.603516	7574.094727
2053.080078	7487.127930
2051.556641	7631.557617
2050.033203	7524.930176
2048.507813	7495.435059
2046.984375	7523.345215
2045.458984	7613.541504
2043.933594	7605.354492
2042.408203	7464.433594
2040.882813	7516.901855
2039.355469	7462.875488
2037.830078	7533.336426
2036.302734	7479.329590
2034.775391	7487.551270
2033.248047	7484.313477
2031.718750	7595.616211
2030.191406	7433.670898
2028.662109	7477.877930
2027.134766	7535.147949
2025.605469	7518.823730
2024.076172	7414.241699
2022.544922	7411.023438
2021.015625	7424.145020
2019.484375	7448.695313
2017.955078	7479.768066
2016.423828	7458.577637
2014.892578	7502.694336
2013.359375	7417.856445
2011.828125	7382.007324
2010.294922	7478.315918
2008.761719	7579.477051
2007.230469	7514.263184
2005.695313	7453.968750
2004.162109	7504.539551
2002.628906	7429.605469
2001.093750	7524.151367
1999.558594	7503.000488
1998.023438	7476.973145
1996.488281	7434.673828
1994.953125	7426.578613
1993.417969	7534.044434
1991.880859	7543.831055
1990.343750	7495.045410
1988.806641	7379.592773
1987.269531	7470.714844
1985.732422	7428.479492
1984.193359	7456.157715
1982.656250	7422.068848
1981.117188	7400.992188
1979.578125	7539.122070
1978.039063	7550.511719
1976.500000	7436.866699
1974.958984	7428.791992
1973.417969	7535.959473
1971.878906	7404.539063
1970.337891	7375.384766
1968.796875	7568.463379
1967.253906	7407.928711
1965.712891	7451.753418
1964.169922	7419.371582
1962.626953	7550.690430
1961.083984	7557.188965
1959.541016	7448.666016
1957.998047	7469.759766
1956.455078	7414.737305
1954.910156	7401.831055
1953.365234	7431.014160
1951.820313	7503.877441
1950.275391	7701.289551
1948.730469	7489.371094
1947.183594	7507.188965
1945.638672	7436.070801
1944.091797	7440.959961
1942.544922	7526.657227
1940.998047	7411.951172
1939.449219	7411.995605
1937.902344	7455.649414
1936.353516	7468.602539
1934.804688	7279.738770
1933.255859	7479.964844
1931.707031	7279.881348
1930.158203	7412.256836
1928.607422	7409.073242
1927.058594	7428.469727
1925.507813	7239.853516
1923.957031	7468.850098
1922.406250	7362.504395
1920.853516	7349.665527
1919.302734	7375.497559
1917.750000	7372.325195
1916.197266	7444.842285
1914.644531	7428.775879
1913.091797	7399.838379
1911.539063	7261.476074
1909.984375	7398.315430
1908.431641	7350.098145
1906.876953	7367.842773
1905.322266	7451.508301
1903.767578	7382.409668
1902.210938	7392.099121
1900.656250	7388.928711
1899.099609	7397.005371
1897.542969	7421.141602
1895.986328	7456.509766
1894.429688	7390.707520
1892.873047	7435.697754
1891.314453	7416.471191
1889.755859	7371.578613
1888.199219	7421.356445
1886.640625	7365.253906
1885.080078	7384.543457
1883.521484	7413.443848
1881.960938	7394.244629
1880.402344	7330.181641
1878.841797	7413.550781
1877.281250	7346.305664
1875.720703	7445.651367
1874.158203	7291.961914
1872.597656	7434.500488
1871.035156	7282.478027
1869.472656	7370.550781
1867.910156	7360.994141
1866.347656	7401.026367
1864.783203	7297.114746
1863.220703	7388.306641
1861.656250	7423.511230
1860.091797	7187.010742
1858.527344	7273.373535
1856.962891	7346.919922
1855.396484	7388.491699
1853.832031	7327.848145
1852.265625	7319.914551
1850.699219	7256.118164
1849.132813	7230.648438
1847.566406	7436.533691
1845.998047	7490.792969
1844.431641	7316.971680
1842.863281	7323.398926
1841.294922	7399.964355
1839.726563	7396.808105
1838.156250	7347.441895
1836.587891	7320.400391
1835.017578	7272.663574
1833.449219	7411.263672
1831.878906	7389.000977
1830.306641	7360.380371
1828.736328	7481.367188
1827.166016	7441.600586
1825.593750	7349.355469
1824.021484	7389.154785
1822.449219	7339.891602
1820.876953	7355.829102
1819.304688	7368.580566
1817.730469	7251.020996
1816.158203	7408.365234
1814.583984	7389.328613
1813.009766	7368.710938
1811.435547	7346.514160
1809.859375	7429.095703
1808.285156	7451.333496
1806.708984	7246.656738
1805.132813	7287.959473
1803.556641	7237.251953
1801.980469	7433.941406
1800.404297	7270.660156
1798.826172	7416.536133
1797.248047	7438.740723
1795.671875	7464.104492
1794.093750	7348.475586
1792.513672	7492.626953
1790.935547	7483.127441
1789.355469	7598.693848
1787.777344	7402.413574
1786.197266	7503.705566
1784.617188	7392.958496
1783.035156	7386.651855
1781.455078	7508.439941
1779.873047	7468.908691
1778.292969	7593.788574
1776.710938	7535.290527
1775.128906	7551.079102
1773.544922	7667.963379
1771.962891	7437.332031
1770.378906	7558.926758
1768.794922	7634.687012
1767.212891	7576.252441
1765.626953	7579.385742
1764.042969	7628.270996
1762.458984	7492.581543
1760.873047	7705.477051
1759.287109	7476.801270
1757.701172	7579.262695
1756.115234	7725.809570
1754.529297	7661.147949
1752.941406	7650.076172
1751.355469	7621.683594
1749.767578	7553.934082
1748.179688	7673.564941
1746.591797	7769.534180
1745.001953	7544.422852
1743.414063	7443.704590
1741.824219	7580.559570
1740.234375	7622.992676
1738.644531	7622.953125
1737.054688	7604.048828
1735.462891	7641.733398
1733.873047	7713.973145
1732.281250	7636.930176
1730.689453	7731.129395
1729.097656	7743.627441
1727.505859	7796.941895
1725.912109	7821.977539
1724.320313	7708.895020
1722.726563	7815.529785
1721.132813	7878.194336
1719.539063	7777.717285
1717.945313	7898.380859
1716.349609	7912.386719
1714.755859	8017.295898
1713.160156	7932.543457
1711.564453	8029.569336
1709.968750	8067.029785
1708.371094	8206.268555
1706.775391	8043.259277
1705.177734	8155.831543
1703.580078	8121.237305
1701.982422	8272.863281
1700.384766	8216.356445
1698.787109	8164.564941
1697.187500	8314.520508
1695.587891	8304.941406
1693.990234	8539.209961
1692.390625	8407.690430
1690.789063	8584.026367
1689.189453	8561.899414
1687.587891	8625.679688
1685.988281	8653.518555
1684.386719	8787.500977
1682.785156	8777.833984
1681.181641	8760.368164
1679.580078	8984.727539
1677.976563	8918.871094
1676.373047	9033.938477
1674.769531	9060.086914
1673.166016	9100.251953
1671.562500	9302.480469
1669.957031	9378.414063
1668.353516	9430.947266
1666.748047	9492.801758
1665.142578	9535.944336
1663.537109	9583.738281
1661.929688	9720.230469
1660.324219	9918.910156
1658.716797	10039.713867
1657.109375	10330.014648
1655.501953	10383.806641
1653.894531	10673.909180
1652.285156	10816.209961
1650.677734	11036.159180
1649.068359	11091.305664
1647.458984	11165.071289
1645.849609	11220.166016
1644.240234	11529.904297
1642.628906	11698.230469
1641.019531	11965.824219
1639.408203	11884.135742
1637.796875	12039.864258
1636.185547	12260.676758
1634.572266	12296.840820
1632.960938	12348.494141
1631.347656	12449.730469
1629.734375	12414.534180
1628.121094	12559.099609
1626.507813	12685.012695
1624.894531	12827.908203
1623.279297	12743.103516
1621.664063	12731.101563
1620.048828	13132.392578
1618.433594	12917.579102
1616.818359	13109.780273
1615.203125	13004.891602
1613.585938	13136.673828
1611.968750	13271.492188
1610.351563	13172.816406
1608.734375	13193.193359
1607.117188	13443.804688
1605.498047	13465.657227
1603.878906	13365.476563
1602.261719	13486.168945
1600.640625	13571.297852
1599.021484	13642.497070
1597.402344	13642.672852
1595.781250	13513.240234
1594.162109	13704.727539
1592.541016	13393.342773
1590.919922	13496.879883
1589.296875	13473.958008
1587.675781	13481.870117
1586.052734	13609.975586
1584.429688	13499.222656
1582.806641	13550.250977
1581.183594	13855.355469
1579.560547	13944.775391
1577.935547	14037.235352
1576.312500	14209.681641
1574.687500	14332.816406
1573.062500	14586.657227
1571.435547	14835.774414
1569.810547	15021.738281
1568.183594	15012.375977
1566.558594	14926.165039
1564.931641	14764.690430
1563.304688	14632.475586
1561.675781	14524.892578
1560.048828	14355.925781
1558.419922	14148.645508
1556.791016	14432.672852
1555.162109	14507.853516
1553.533203	14676.599609
1551.904297	15001.749023
1550.273438	14816.018555
1548.642578	15004.521484
1547.011719	14792.805664
1545.380859	14683.874023
1543.750000	14250.111328
1542.119141	14360.431641
1540.486328	14112.267578
1538.853516	13887.180664
1537.220703	13585.632813
1535.587891	13293.398438
1533.955078	13221.674805
1532.320313	13088.775391
1530.685547	13189.993164
1529.052734	13008.211914
1527.416016	13181.270508
1525.781250	13212.074219
1524.146484	13119.054688
1522.509766	13145.271484
1520.873047	13342.592773
1519.236328	13452.760742
1517.599609	13527.754883
1515.962891	13788.992188
1514.324219	13932.573242
1512.687500	13824.269531
1511.048828	14002.873047
1509.410156	13731.366211
1507.771484	13484.377930
1506.130859	13399.131836
1504.492188	13208.727539
1502.851563	13093.090820
1501.210938	12876.925781
1499.570313	12971.661133
1497.927734	12822.635742
1496.287109	12719.360352
1494.644531	12619.174805
1493.001953	12470.318359
1491.359375	12473.717773
1489.716797	12311.259766
1488.074219	12323.817383
1486.429688	11902.900391
1484.785156	12029.584961
1483.140625	11993.542969
1481.496094	12161.189453
1479.851563	12296.850586
1478.207031	12067.820313
1476.560547	12230.782227
1474.914063	12454.418945
1473.267578	12545.864258
1471.621094	12643.341797
1469.972656	12415.995117
1468.326172	12622.704102
1466.677734	12644.247070
1465.029297	12730.997070
1463.380859	12790.414063
1461.732422	12981.698242
1460.082031	13007.687500
1458.431641	13054.879883
1456.783203	13044.479492
1455.132813	12861.405273
1453.480469	12704.153320
1451.830078	12507.603516
1450.177734	12408.015625
1448.527344	12169.237305
1446.875000	11857.933594
1445.220703	11794.854492
1443.568359	11669.791992
1441.916016	11649.117188
1440.261719	11525.649414
1438.607422	11526.172852
1436.953125	11491.938477
1435.298828	11312.684570
1433.642578	11361.584961
1431.988281	11161.292969
1430.332031	11074.321289
1428.675781	10899.836914
1427.019531	10838.613281
1425.361328	10735.167969
1423.705078	10681.546875
1422.046875	10605.326172
1420.388672	10572.864258
1418.730469	10706.240234
1417.072266	10605.946289
1415.412109	10761.857422
1413.753906	10714.320313
1412.093750	10886.706055
1410.433594	11009.322266
1408.773438	11154.467773
1407.111328	11534.360352
1405.451172	11897.532227
1403.789063	12340.286133
1402.126953	12880.620117
1400.464844	13162.048828
1398.802734	13259.917969
1397.138672	13130.755859
1395.474609	12959.566406
1393.812500	12896.636719
1392.146484	12480.704102
1390.482422	12215.143555
1388.818359	12105.864258
1387.152344	11891.542969
1385.486328	11947.483398
1383.820313	11976.386719
1382.154297	12105.795898
1380.488281	12586.136719
1378.820313	12902.807617
1377.154297	13169.861328
1375.486328	13390.329102
1373.818359	13405.384766
1372.148438	13453.395508
1370.480469	13339.600586
1368.810547	13144.981445
1367.140625	13218.467773
1365.470703	12902.700195
1363.800781	12681.359375
1362.130859	12579.823242
1360.458984	12547.147461
1358.787109	12454.656250
1357.115234	12475.852539
1355.443359	12722.789063
1353.771484	12802.208984
1352.097656	13105.750000
1350.423828	13793.129883
1348.751953	14429.419922
1347.076172	15031.080078
1345.402344	15889.284180
1343.728516	16891.906250
1342.052734	17867.222656
1340.376953	18786.902344
1338.701172	19676.339844
1337.025391	20438.613281
1335.347656	21011.179688
1333.671875	21671.447266
1331.994141	21954.339844
1330.316406	22091.072266
1328.638672	21980.437500
1326.960938	21911.554688
1325.281250	21678.892578
1323.601563	21382.314453
1321.921875	21039.720703
1320.242188	20695.787109
1318.562500	20185.367188
1316.880859	19539.806641
1315.201172	18765.144531
1313.519531	17940.269531
1311.837891	17264.408203
1310.154297	16309.439453
1308.472656	15980.438477
1306.789063	15583.246094
1305.105469	14801.559570
1303.421875	14597.833984
1301.738281	14015.636719
1300.054688	13368.388672
1298.369141	13138.400391
1296.683594	12800.210938
1294.998047	12549.681641
1293.312500	12352.646484
1291.626953	12074.155273
1289.939453	11921.777344
1288.253906	11573.850586
1286.566406	11552.029297
1284.878906	11411.714844
1283.189453	11438.807617
1281.501953	11489.577148
1279.812500	11632.101563
1278.123047	11557.006836
1276.433594	11341.379883
1274.744141	11474.961914
1273.052734	11538.972656
1271.363281	11416.643555
1269.671875	11570.814453
1267.980469	11522.429688
1266.289063	11546.471680
1264.595703	11372.538086
1262.904297	11220.835938
1261.210938	11045.573242
1259.517578	10957.491211
1257.824219	11014.098633
1256.128906	10871.460938
1254.435547	10889.700195
1252.740234	10809.102539
1251.044922	10743.286133
1249.349609	10879.489258
1247.652344	10853.484375
1245.957031	10920.334961
1244.259766	10783.825195
1242.562500	10835.928711
1240.865234	10830.570313
1239.167969	10713.310547
1237.468750	10621.126953
1235.769531	10534.870117
1234.072266	10481.021484
1232.371094	10559.596680
1230.671875	10660.196289
1228.972656	10410.784180
1227.271484	10274.680664
1225.570313	10316.481445
1223.869141	10158.416016
1222.167969	9987.198242
1220.464844	9821.929688
1218.763672	9859.385742
1217.060547	9703.027344
1215.357422	9668.567383
1213.654297	9686.951172
1211.949219	9645.172852
1210.246094	9500.732422
1208.541016	9495.674805
1206.835938	9493.550781
1205.130859	9522.208984
1203.423828	9410.163086
1201.718750	9564.833984
1200.011719	9391.301758
1198.304688	9620.596680
1196.597656	9492.518555
1194.888672	9526.989258
1193.181641	9463.384766
1191.472656	9431.998047
1189.763672	9380.144531
1188.054688	9552.087891
1186.343750	9392.021484
1184.634766	9299.275391
1182.923828	9254.801758
1181.212891	9246.879883
1179.501953	9170.295898
1177.791016	9273.399414
1176.078125	9069.797852
1174.365234	8996.222656
1172.652344	8868.672852
1170.939453	8916.294922
1169.226563	8991.615234
1167.511719	9027.517578
1165.798828	8878.197266
1164.083984	8755.186523
1162.369141	8906.270508
1160.652344	8794.965820
1158.937500	8826.496094
1157.220703	8938.127930
1155.503906	8895.336914
1153.787109	8891.876953
1152.070313	8901.517578
1150.351563	8834.019531
1148.632813	8955.705078
1146.916016	9022.056641
1145.195313	9036.018555
1143.476563	8991.812500
1141.757813	9072.644531
1140.037109	8838.054688
1138.316406	8737.250977
1136.595703	8656.829102
1134.875000	8637.445313
1133.152344	8552.724609
1131.429688	8584.181641
1129.708984	8519.830078
1127.984375	8552.729492
1126.261719	8536.287109
1124.539063	8527.103516
1122.814453	8404.815430
1121.089844	8675.470703
1119.365234	8606.832031
1117.640625	8859.928711
1115.914063	8872.409180
1114.187500	8755.970703
1112.462891	8646.824219
1110.734375	8472.575195
1109.007813	8337.485352
1107.281250	8060.636230
1105.552734	8028.424316
1103.824219	7770.573242
1102.095703	7725.424805
1100.367188	7574.750000
1098.636719	7590.375977
1096.908203	7386.326660
1095.177734	7388.983398
1093.447266	7413.306152
1091.714844	7297.529785
1089.984375	7290.095703
1088.251953	7271.115723
1086.519531	7283.894043
1084.787109	7214.421875
1083.054688	7126.227051
1081.320313	7205.370117
1079.585938	7071.075195
1077.851563	7163.167480
1076.117188	7286.924316
1074.382813	7210.336914
1072.648438	7309.535156
1070.912109	7414.448242
1069.175781	7274.524902
1067.439453	7310.296387
1065.701172	7324.460938
1063.964844	7340.057617
1062.226563	7167.187500
1060.488281	7225.959961
1058.750000	7335.033691
1057.011719	7295.980469
1055.271484	7371.928711
1053.531250	7279.715332
1051.791016	7381.490723
1050.050781	7303.679199
1048.310547	7332.165527
1046.568359	7234.299805
1044.826172	7242.692871
1043.083984	7330.006836
1041.341797	7239.379883
1039.599609	7335.258789
1037.855469	7428.225098
1036.113281	7568.459961
1034.369141	7566.727051
1032.623047	7745.556641
1030.878906	7901.379883
1029.132813	7992.673828
1027.386719	8078.197266
1025.640625	8011.917480
1023.894531	8097.395508
1022.148438	8187.126465
1020.400391	8193.833008
1018.652344	8005.999512
1016.904297	8184.352539
1015.156250	8083.820801
1013.406250	8150.577148
1011.658203	8068.675781
1009.908203	8058.249512
1008.158203	7923.553223
1006.408203	7937.441406
1004.656250	8004.150391
1002.904297	7890.968750
1001.152344	7813.516602
999.400391	7871.645020
997.648438	7740.024902
995.896484	7685.476563
994.142578	7670.875488
992.388672	7456.711914
990.634766	7482.073242
988.878906	7501.722168
987.125000	7467.230469
985.369141	7448.419922
983.613281	7497.961426
981.857422	7474.880371
980.099609	7340.800293
978.343750	7454.358887
976.585938	7405.695801
974.828125	7258.922363
973.070313	7144.919434
971.310547	7239.935059
969.552734	7278.058105
967.792969	7364.472168
966.033203	7472.154785
964.273438	7591.148438
962.511719	7829.357910
960.750000	8084.492188
958.990234	8240.160156
957.226563	8344.673828
955.464844	8257.627930
953.703125	8208.915039
951.939453	7912.084961
950.175781	7660.754883
948.412109	7352.849609
946.648438	7335.560547
944.882813	7214.865723
943.117188	7166.456543
941.351563	6771.157715
939.585938	6967.778320
937.820313	6789.249512
936.052734	6718.341309
934.285156	6764.881836
932.517578	6737.855469
930.750000	6780.126465
928.982422	6819.549805
927.212891	6801.007324
925.443359	6881.383789
923.673828	6838.818359
921.904297	6768.024902
920.132813	6911.892090
918.361328	6869.347168
916.591797	6850.814453
914.818359	6874.621582
913.046875	6770.041016
911.275391	6741.669922
909.501953	6587.815430
907.728516	6597.561035
905.955078	6566.428711
904.179688	6493.038086
902.406250	6585.913574
900.630859	6497.058105
898.855469	6487.097168
897.080078	6447.576660
895.302734	6464.372070
893.525391	6343.261719
891.750000	6454.326172
889.970703	6545.648438
888.193359	6437.256836
886.416016	6459.654785
884.636719	6438.472168
882.857422	6493.176270
881.078125	6401.753418
879.296875	6370.765137
877.517578	6178.312500
875.736328	6234.427734
873.955078	6287.708984
872.173828	6190.824707
870.390625	6144.487793
868.609375	6037.863281
866.826172	6117.780273
865.042969	5976.163574
863.259766	6046.245605
861.474609	6072.856445
859.689453	6065.833008
857.904297	6099.428711
856.119141	6124.606445
854.333984	6124.573242
852.546875	6214.112793
850.761719	6250.437988
848.974609	6134.263672
847.185547	6202.757324
845.398438	6058.681641
843.609375	6139.741211
841.822266	6114.543457
840.031250	6037.657715
838.242188	6111.678711
836.453125	6226.166016
834.662109	6092.058105
832.871094	6156.240723
831.080078	6124.092773
829.289063	6132.423828
827.496094	6284.434082
825.703125	6128.151855
823.910156	6249.415527
822.117188	6196.370117
820.324219	6158.680176
818.529297	6250.588867
816.734375	6146.036621
814.939453	6232.333496
813.144531	6332.512695
811.347656	6499.462402
809.550781	6585.613281
807.755859	6559.020020
805.957031	6411.416504
804.160156	6555.936523
802.361328	6541.881348
800.564453	6525.051758
798.765625	6595.783691
796.964844	6531.707520
795.166016	6516.279785
793.365234	6499.469238
791.564453	6564.584961
789.763672	6700.463379
787.962891	6672.517578
786.160156	6790.268066
784.359375	6548.693359
782.556641	6620.651367
780.751953	6476.283203
778.949219	6413.766113
777.144531	6492.632324
775.339844	6315.142578
773.535156	6280.409180
771.730469	6180.603516
769.925781	6240.064941
768.119141	6233.055664
766.312500	6245.423828
764.505859	6264.703125
762.697266	6404.313477
760.890625	6442.905273
759.082031	6556.137695
757.273438	6775.748047
755.464844	6753.418945
753.654297	6746.297852
751.845703	6859.348633
750.035156	7048.297363
748.224609	7281.335449
746.412109	7655.051270
744.601563	8374.958984
742.789063	9487.720703
740.976563	11634.434570
739.164063	15443.178711
737.349609	21053.398438
735.537109	27253.642578
733.722656	31964.087891
731.908203	33429.257813
730.091797	30858.101563
728.277344	25177.466797
726.460938	19326.056641
724.644531	14636.317383
722.828125	11444.557617
721.009766	9453.934570
719.193359	8281.236328
717.375000	7656.369629
715.556641	7119.781738
713.736328	6848.708984
711.917969	6569.520020
710.097656	6561.093750
708.277344	6486.746094
706.457031	6468.730957
704.636719	6449.350586
702.814453	6449.193848
700.992188	6399.639160
699.169922	6281.517090
697.347656	6397.974609
695.523438	6445.817871
693.699219	6563.550781
691.875000	6726.454102
690.050781	6726.227539
688.226563	6815.041016
686.400391	6892.855957
684.574219	6813.173828
682.748047	6621.281250
680.921875	6387.053711
679.095703	6534.673828
677.267578	6378.547852
675.439453	6357.885742
673.611328	6370.047363
671.781250	6294.719238
669.953125	6219.425781
668.123047	6331.348633
666.292969	6271.107422
664.460938	6187.678223
662.630859	6284.508789
660.798828	6424.972168
658.966797	6375.680664
657.134766	6531.062012
655.302734	6589.524414
653.468750	6582.501465
651.634766	6636.832520
649.800781	6637.979004
647.966797	6666.378418
646.130859	6724.736328
644.294922	6585.566895
642.458984	6671.149902
640.623047	6508.914551
638.787109	6721.055176
636.949219	6735.783203
635.111328	6792.677734
633.273438	6755.696289
631.435547	6915.901855
629.595703	7059.716797
627.757813	7128.709961
625.917969	7166.416504
624.076172	7115.802246
622.236328	7168.432617
620.394531	7013.286621
618.552734	6886.722168
616.710938	6708.643555
614.869141	6620.203613
613.025391	6518.239746
611.183594	6425.817383
609.339844	6220.898438
607.494141	5918.474609
605.650391	5965.852051
603.804688	5865.518066
601.958984	5792.323730
600.113281	5644.678223
598.267578	5664.994141
596.419922	5725.909180
594.572266	5706.949219
592.724609	5696.115723
590.876953	5733.982910
589.027344	5721.794922
587.179688	5733.948730
585.330078	5648.773438
583.480469	5659.586914
581.628906	5600.139160
579.779297	5650.129395
577.927734	5719.000977
576.076172	5748.686523
574.222656	5775.658203
572.371094	5863.341309
570.517578	6072.403320
568.664063	6112.764648
566.810547	6177.378906
564.955078	6206.910156
563.101563	6248.556641
561.246094	6129.829590
559.390625	6265.777344
557.533203	6206.363770
555.677734	6103.888672
553.820313	6010.885742
551.962891	5994.643555
550.105469	5843.850098
548.246094	5882.810059
546.386719	5689.077148
544.527344	5742.845703
542.667969	5749.537598
540.808594	5812.672363
538.947266	5779.034180
537.085938	5858.250977
535.224609	5764.181641
533.363281	5871.559570
531.500000	5600.339355
529.638672	5566.790039
527.775391	5604.367676
525.910156	5537.297852
524.046875	5672.762207
522.181641	5936.874023
520.316406	6302.732422
518.451172	6053.302246
516.585938	5593.643066
514.718750	5225.288086
512.851563	5203.949707
510.984375	5183.959961
509.117188	5122.485352
507.250000	5196.197266
505.380859	5069.193359
503.511719	5141.544434
501.642578	5232.582031
499.771484	5156.461914
497.902344	5144.533691
496.031250	5131.275391
494.160156	5175.468262
492.287109	5084.741699
490.416016	5100.882324
488.542969	5110.340332
486.669922	5031.705078
484.796875	5089.210938
482.921875	5157.361328
481.046875	5137.453613
479.171875	5142.889648
477.296875	5113.663086
475.421875	5011.148438
473.544922	4943.326172
471.667969	5004.750977
469.791016	5042.173828
467.914063	4997.026855
466.035156	5118.295898
464.156250	5033.226563
462.277344	5040.003418
460.398438	4988.248047
458.519531	5066.845215
456.638672	5084.245117
454.757813	5156.134766
452.876953	5109.715820
450.994141	5154.992188
449.113281	5076.716309
447.230469	5002.460938
445.347656	5003.917480
443.462891	5104.922852
441.580078	5058.580566
439.695313	5038.794434
437.810547	4988.510742
435.925781	5019.140625
434.039063	5028.543457
432.152344	4991.551758
430.267578	4947.952148
428.378906	4950.740723
426.492188	4998.559570
424.603516	5007.954590
422.714844	5062.355469
420.826172	5035.995605
418.937500	4819.106445
417.046875	5032.258789
415.158203	5201.664063
413.265625	5006.046387
411.375000	5066.977539
409.484375	5100.125488
407.591797	5019.625000
405.699219	5007.854492
403.806641	4998.729980
401.912109	5091.277344
400.019531	4962.013672
