#Wave		#Intensity
2109.224609	5051.216797
2107.712891	5008.213379
2106.201172	5116.268555
2104.687500	5123.428711
2103.175781	5087.610352
2101.662109	4962.570801
2100.150391	4989.585938
2098.636719	5138.824219
2097.123047	5036.975098
2095.607422	5055.700684
2094.093750	5018.292969
2092.578125	5159.144531
2091.064453	4938.576172
2089.548828	4998.549316
2088.033203	5035.406250
2086.517578	5129.961426
2085.000000	5021.695801
2083.484375	5075.006836
2081.966797	5007.997070
2080.449219	5053.050293
2078.931641	5099.731445
2077.414063	5095.339844
2075.894531	4977.342773
2074.376953	4931.826172
2072.857422	5172.695313
2071.337891	5016.912598
2069.818359	5045.445801
2068.298828	5019.690430
2066.777344	5013.678711
2065.257813	5019.177246
2063.736328	5013.168457
2062.214844	5102.473633
2060.693359	5078.376953
2059.171875	5041.149414
2057.648438	5205.935059
2056.126953	4953.607910
2054.603516	5067.453125
2053.080078	5012.207031
2051.556641	4991.442383
2050.033203	5051.070313
2048.507813	5212.361816
2046.984375	5034.147461
2045.458984	5052.742188
2043.933594	5068.050781
2042.408203	5025.997070
2040.882813	5111.755371
2039.355469	5120.489258
2037.830078	5093.190430
2036.302734	5018.420898
2034.775391	5074.641113
2033.248047	5045.732910
2031.718750	5057.744141
2030.191406	5059.934570
2028.662109	5099.742676
2027.134766	5083.935547
2025.605469	5149.879395
2024.076172	5170.027832
2022.544922	5056.164551
2021.015625	5131.875000
2019.484375	5168.349121
2017.955078	5041.494141
2016.423828	4929.388184
2014.892578	5124.229004
2013.359375	5079.069336
2011.828125	5087.775879
2010.294922	4944.759277
2008.761719	5080.712402
2007.230469	5040.492188
2005.695313	5047.569336
2004.162109	5085.613281
2002.628906	5027.491211
2001.093750	5036.195801
1999.558594	5069.331055
1998.023438	5050.335938
1996.488281	5011.810059
1994.953125	5023.766113
1993.417969	5156.157715
1991.880859	5150.178223
1990.343750	5062.856934
1988.806641	4964.187012
1987.269531	5076.963867
1985.732422	4981.584473
1984.193359	5053.672363
1982.656250	5054.222168
1981.117188	5001.153320
1979.578125	5052.072754
1978.039063	5075.360352
1976.500000	5038.558105
1974.958984	5063.461914
1973.417969	5031.547363
1971.878906	5100.255371
1970.337891	5053.744629
1968.796875	5115.930664
1967.253906	5020.785156
1965.712891	5013.233398
1964.169922	5120.776367
1962.626953	5032.172852
1961.083984	5155.869629
1959.541016	5008.976563
1957.998047	5037.066895
1956.455078	5076.479980
1954.910156	5133.685059
1953.365234	5077.562988
1951.820313	5032.792480
1950.275391	5072.172852
1948.730469	5185.944336
1947.183594	5071.638184
1945.638672	5057.627441
1944.091797	5043.622559
1942.544922	5087.807129
1940.998047	5086.728027
1939.449219	5082.418945
1937.902344	5026.425781
1936.353516	5067.345703
1934.804688	5166.370117
1933.255859	5049.056641
1931.707031	5062.511230
1930.158203	5038.850098
1928.607422	5052.300781
1927.058594	5122.192871
1925.507813	5109.820801
1923.957031	5066.824219
1922.406250	5099.598145
1920.853516	5159.751953
1919.302734	5137.715332
1917.750000	5019.043945
1916.197266	5121.046875
1914.644531	5124.792969
1913.091797	5180.047852
1911.539063	5075.952148
1909.984375	5095.794922
1908.431641	5134.934082
1906.876953	5064.688477
1905.322266	5070.048828
1903.767578	5112.383301
1902.210938	5164.343262
1900.656250	5042.727051
1899.099609	5179.832031
1897.542969	5026.137207
1895.986328	5073.252930
1894.429688	5102.687012
1892.873047	5111.239746
1891.314453	5212.875488
1889.755859	5150.798340
1888.199219	5077.517090
1886.640625	5206.361816
1885.080078	5184.414551
1883.521484	5176.905273
1881.960938	5126.120605
1880.402344	5084.972656
1878.841797	5234.508301
1877.281250	5110.055664
1875.720703	5104.170898
1874.158203	5237.595215
1872.597656	5017.166992
1871.035156	5091.332520
1869.472656	5183.068848
1867.910156	5127.578125
1866.347656	5152.086914
1864.783203	5115.816406
1863.220703	5191.480469
1861.656250	5038.524414
1860.091797	5123.761719
1858.527344	5138.657715
1856.962891	5262.177734
1855.396484	5071.002930
1853.832031	5143.386230
1852.265625	5105.580566
1850.699219	5011.924805
1849.132813	5183.214844
1847.566406	5116.705078
1845.998047	5066.175293
1844.431641	5176.741699
1842.863281	5062.440918
1841.294922	5126.730957
1839.726563	5241.995605
1838.156250	5189.897949
1836.587891	5260.492188
1835.017578	5119.216309
1833.449219	5191.387695
1831.878906	5182.331055
1830.306641	5138.258789
1828.736328	5189.691406
1827.166016	5217.235352
1825.593750	5185.908691
1824.021484	5202.308594
1822.449219	5158.277344
1820.876953	5087.238770
1819.304688	5233.980957
1817.730469	5202.683105
1816.158203	5153.921875
1814.583984	5214.781738
1813.009766	5113.631348
1811.435547	5082.384277
1809.859375	5174.968750
1808.285156	5148.482422
1806.708984	5096.619629
1805.132813	5130.444336
1803.556641	5092.881348
1801.980469	5177.435547
1800.404297	5206.464844
1798.826172	5184.759277
1797.248047	5071.148438
1795.671875	5161.972656
1794.093750	5113.360352
1792.513672	5085.357422
1790.935547	5174.536621
1789.355469	5201.938965
1787.777344	5150.192871
1786.197266	5229.807129
1784.617188	5204.971680
1783.035156	5248.160645
1781.455078	5228.075684
1779.873047	5147.918457
1778.292969	5187.929688
1776.710938	5191.575195
1775.128906	5187.318359
1773.544922	5190.961426
1771.962891	5227.770020
1770.378906	5128.764160
1768.794922	5340.807617
1767.212891	5192.889648
1765.626953	5229.665527
1764.042969	5214.360840
1762.458984	5202.217285
1760.873047	5238.967285
1759.287109	5236.283691
1757.701172	5265.128418
1756.115234	5241.950684
1754.529297	5127.391113
1752.941406	5201.925781
1751.355469	5222.876953
1749.767578	5207.600586
1748.179688	5269.475098
1746.591797	5206.973145
1745.001953	5342.786133
1743.414063	5220.505371
1741.824219	5285.470215
1740.234375	5306.370605
1738.644531	5280.090332
1737.054688	5343.428223
1735.462891	5251.137695
1733.873047	5339.596680
1732.281250	5212.782227
1730.689453	5356.187012
1729.097656	5353.483398
1727.505859	5390.032227
1725.912109	5286.859375
1724.320313	5403.445801
1722.726563	5444.667480
1721.132813	5440.377930
1719.539063	5440.794922
1717.945313	5381.624512
1716.349609	5377.350098
1714.755859	5479.661133
1713.160156	5447.159668
1711.564453	5447.573242
1709.968750	5505.943359
1708.371094	5459.361328
1706.775391	5491.085938
1705.177734	5504.012207
1703.580078	5601.446777
1701.982422	5567.400879
1700.384766	5439.502930
1698.787109	5464.940430
1697.187500	5577.937500
1695.587891	5543.923340
1693.990234	5542.749023
1692.390625	5643.154297
1690.789063	5518.525879
1689.189453	5631.390137
1687.587891	5572.410645
1685.988281	5538.439453
1684.386719	5615.320801
1682.785156	5575.110840
1681.181641	5570.807617
1679.580078	5660.113281
1677.976563	5694.788086
1676.373047	5720.091309
1674.769531	5670.544922
1673.166016	5730.134766
1671.562500	5836.453613
1669.957031	5824.308105
1668.353516	5929.002930
1666.748047	5980.698730
1665.142578	5970.086426
1663.537109	5959.478516
1661.929688	5917.744629
1660.324219	6062.766602
1658.716797	6035.030273
1657.109375	6081.969238
1655.501953	6164.656250
1653.894531	6241.088379
1652.285156	6410.757813
1650.677734	6375.204102
1649.068359	6328.788086
1647.458984	6583.772461
1645.849609	6462.778320
1644.240234	6525.071777
1642.628906	6568.707520
1641.019531	6505.223633
1639.408203	6677.648926
1637.796875	6677.780273
1636.185547	6752.369141
1634.572266	6890.511230
1632.960938	6954.167969
1631.347656	6974.391602
1629.734375	6963.608398
1628.121094	7065.946289
1626.507813	7007.121582
1624.894531	7166.714844
1623.279297	7163.640625
1621.664063	7307.649414
1620.048828	7451.596191
1618.433594	7352.512207
1616.818359	7604.693848
1615.203125	7723.733398
1613.585938	7637.025879
1611.968750	7854.966797
1610.351563	7861.022461
1608.734375	7901.078125
1607.117188	7900.939453
1605.498047	8015.125000
1603.878906	8027.317871
1602.261719	7953.025391
1600.640625	8067.125000
1599.021484	8102.451172
1597.402344	8045.164551
1595.781250	7958.585449
1594.162109	7992.367676
1592.541016	7859.566406
1590.919922	7914.941895
1589.296875	7896.294434
1587.675781	7868.406250
1586.052734	7791.217773
1584.429688	7960.566406
1582.806641	7960.406738
1581.183594	8031.085938
1579.560547	8137.146973
1577.935547	8059.980469
1576.312500	8004.392578
1574.687500	8019.606934
1573.062500	7950.205078
1571.435547	7893.136719
1569.810547	7891.448730
1568.183594	7837.490234
1566.558594	7981.832520
1564.931641	7866.408203
1563.304688	7898.525391
1561.675781	7930.628418
1560.048828	7899.751953
1558.419922	7787.512695
1556.791016	7881.019043
1555.162109	7916.165039
1553.533203	7903.729004
1551.904297	7900.501465
1550.273438	7815.986816
1548.642578	7913.984375
1547.011719	7749.780273
1545.380859	7821.691895
1543.750000	7749.522949
1542.119141	7651.338867
1540.486328	7738.541016
1538.853516	7707.783691
1537.220703	7623.449707
1535.587891	7735.092285
1533.955078	7682.927246
1532.320313	7482.360840
1530.685547	7451.687988
1529.052734	7564.799316
1527.416016	7641.161133
1525.781250	7639.520020
1524.146484	7507.957031
1522.509766	7529.266602
1520.873047	7545.982910
1519.236328	7506.173340
1517.599609	7493.869629
1515.962891	7423.549805
1514.324219	7490.646973
1512.687500	7473.773926
1511.048828	7276.855469
1509.410156	7420.216309
1507.771484	7365.236816
1506.130859	7224.887695
1504.492188	7279.740723
1502.851563	7246.164551
1501.210938	7188.220215
1499.570313	7189.719238
1497.927734	7194.263184
1496.287109	7101.338379
1494.644531	7057.175781
1493.001953	7247.458984
1491.359375	7118.054688
1489.716797	7111.955078
1488.074219	7165.187012
1486.429688	7081.510742
1484.785156	7156.013672
1483.140625	7228.963867
1481.496094	7137.726074
1479.851563	7025.252441
1478.207031	7113.374512
1476.560547	7125.509277
1474.914063	7177.123047
1473.267578	7122.431641
1471.621094	7199.828125
1469.972656	7069.270996
1468.326172	7088.985840
1466.677734	7126.895508
1465.029297	7095.020508
1463.380859	7310.324219
1461.732422	7108.628418
1460.082031	7238.955566
1458.431641	7169.197754
1456.783203	7108.559570
1455.132813	7079.755859
1453.480469	7194.830566
1451.830078	7205.384766
1450.177734	7211.392578
1448.527344	7085.731934
1446.875000	7182.545898
1445.220703	7277.804688
1443.568359	7075.076172
1441.916016	7248.944336
1440.261719	7195.972168
1438.607422	7289.631836
1436.953125	7253.294922
1435.298828	7257.764160
1433.642578	7235.042480
1431.988281	7299.917480
1430.332031	7228.881836
1428.675781	7145.800781
1427.019531	7165.376953
1425.361328	7089.888672
1423.705078	7139.636230
1422.046875	7015.923828
1420.388672	7098.836914
1418.730469	6979.708984
1417.072266	7005.319824
1415.412109	7181.603516
1413.753906	7089.649902
1412.093750	7103.168945
1410.433594	7065.482422
1408.773438	7036.844727
1407.111328	7047.354004
1405.451172	7077.421387
1403.789063	7069.861816
1402.126953	7107.431152
1400.464844	7194.611328
1398.802734	7077.269043
1397.138672	7161.410156
1395.474609	7068.171387
1393.812500	7027.562500
1392.146484	7102.644043
1390.482422	7203.225098
1388.818359	7069.512695
1387.152344	7128.020020
1385.486328	7085.938477
1383.820313	7238.954102
1382.154297	7211.867676
1380.488281	7313.789063
1378.820313	7361.678711
1377.154297	7288.103027
1375.486328	7277.515625
1373.818359	7293.908203
1372.148438	7275.831055
1370.480469	7253.267578
1368.810547	7218.731934
1367.140625	7181.215820
1365.470703	7255.991211
1363.800781	7181.064941
1362.130859	7186.974121
1360.458984	7143.511230
1358.787109	7270.575684
1357.115234	7173.278809
1355.443359	7240.478027
1353.771484	7235.901367
1352.097656	7373.291992
1350.423828	7228.245605
1348.751953	7387.982422
1347.076172	7308.704102
1345.402344	7374.288086
1343.728516	7556.276855
1342.052734	7460.595215
1340.376953	7484.322266
1338.701172	7530.414551
1337.025391	7579.468262
1335.347656	7622.535645
1333.671875	7662.602051
1331.994141	7641.541016
1330.316406	7772.481445
1328.638672	7662.016602
1326.960938	7843.535156
1325.281250	7680.981934
1323.601563	7704.600586
1321.921875	7652.295898
1320.242188	7805.378906
1318.562500	7653.388672
1316.880859	7479.152344
1315.201172	7562.272949
1313.519531	7639.408691
1311.837891	7515.830078
1310.154297	7442.835449
1308.472656	7506.571289
1306.789063	7547.995605
1305.105469	7541.874512
1303.421875	7486.753906
1301.738281	7446.502930
1300.054688	7395.878906
1298.369141	7386.825684
1296.683594	7318.433105
1294.998047	7336.098145
1293.312500	7289.989258
1291.626953	7187.562012
1289.939453	7188.937012
1288.253906	7197.720215
1286.566406	7034.633301
1284.878906	6954.569336
1283.189453	7139.628906
1281.501953	7052.172363
1279.812500	7105.381348
1278.123047	6905.492676
1276.433594	6982.383301
1274.744141	6963.084473
1273.052734	6985.204590
1271.363281	6849.099121
1269.671875	6841.666992
1267.980469	6878.577148
1266.289063	6828.288086
1264.595703	6800.180664
1262.904297	6816.395508
1261.210938	6770.582031
1259.517578	6764.649414
1257.824219	6862.040527
1256.128906	6801.487793
1254.435547	6808.828613
1252.740234	6699.637207
1251.044922	6661.279785
1249.349609	6830.827148
1247.652344	6751.182617
1245.957031	6815.998535
1244.259766	6782.066895
1242.562500	6759.934570
1240.865234	6706.883301
1239.167969	6793.734863
1237.468750	6720.088867
1235.769531	6678.854492
1234.072266	6706.794434
1232.371094	6740.605957
1230.671875	6647.915039
1228.972656	6625.846191
1227.271484	6680.232910
1225.570313	6580.266113
1223.869141	6564.103027
1222.167969	6506.810547
1220.464844	6528.858887
1218.763672	6540.617188
1217.060547	6423.171875
1215.357422	6515.677734
1213.654297	6509.819336
1211.949219	6489.290527
1210.246094	6411.563965
1208.541016	6483.456055
1206.835938	6542.119141
1205.130859	6446.840332
1203.423828	6419.018066
1201.718750	6477.654785
1200.011719	6511.361328
1198.304688	6397.132813
1196.597656	6521.622559
1194.888672	6381.091797
1193.181641	6427.958984
1191.472656	6427.981445
1189.763672	6490.908203
1188.054688	6492.377441
1186.343750	6508.467773
1184.634766	6401.749512
1182.923828	6429.544434
1181.212891	6463.171387
1179.501953	6448.571777
1177.791016	6322.971680
1176.078125	6347.836426
1174.365234	6324.510742
1172.652344	6279.300293
1170.939453	6432.574219
1169.226563	6241.461914
1167.511719	6279.441406
1165.798828	6254.695801
1164.083984	6267.868164
1162.369141	6259.168945
1160.652344	6281.077148
1158.937500	6144.162109
1157.220703	6192.305176
1155.503906	6214.211426
1153.787109	6173.498535
1152.070313	6132.803711
1150.351563	6124.144531
1148.632813	6138.768555
1146.916016	6115.563477
1145.195313	6153.451660
1143.476563	6109.895996
1141.757813	6015.479004
1140.037109	5969.065918
1138.316406	6005.497559
1136.595703	5915.524414
1134.875000	6023.118164
1133.152344	5988.359375
1131.429688	6007.330078
1129.708984	6075.640137
1127.984375	5978.494141
1126.261719	5962.634277
1124.539063	5998.996582
1122.814453	5972.987305
1121.089844	6060.071777
1119.365234	6003.620605
1117.640625	6002.260742
1115.914063	6053.058105
1114.187500	5921.324707
1112.462891	5957.634277
1110.734375	6028.674316
1109.007813	5925.983887
1107.281250	5884.119629
1105.552734	5911.721680
1103.824219	5654.350586
1102.095703	5851.192383
1100.367188	5972.760254
1098.636719	5936.711914
1096.908203	5906.459961
1095.177734	5811.203125
1093.447266	5848.884766
1091.714844	5825.892578
1089.984375	5831.787598
1088.251953	5859.332520
1086.519531	5872.432129
1084.787109	5927.369141
1083.054688	5823.599121
1081.320313	5887.173828
1079.585938	5934.858398
1077.851563	5777.817383
1076.117188	5799.561523
1074.382813	5938.009277
1072.648438	5773.870117
1070.912109	5946.825684
1069.175781	5722.280762
1067.439453	5814.550293
1065.701172	5875.112793
1063.964844	5865.139160
1062.226563	5751.588867
1060.488281	5756.029785
1058.750000	5905.701660
1057.011719	5849.723145
1055.271484	5858.448242
1053.531250	5796.757324
1051.791016	5648.895020
1050.050781	5858.742676
1048.310547	5861.711914
1046.568359	5729.726563
1044.826172	5715.498047
1043.083984	5725.670898
1041.341797	5619.629395
1039.599609	5701.535645
1037.855469	5761.893555
1036.113281	5589.965332
1034.369141	5721.987793
1032.623047	5733.574707
1030.878906	5740.857422
1029.132813	5723.785645
1027.386719	5665.191895
1025.640625	5708.276367
1023.894531	5635.397949
1022.148438	5732.849121
1020.400391	5811.655273
1018.652344	5864.677246
1016.904297	5667.410156
1015.156250	5668.968750
1013.406250	5753.432617
1011.658203	5726.387207
1009.908203	5639.346191
1008.158203	5670.904297
1006.408203	5629.613770
1004.656250	5636.886719
1002.904297	5631.308105
1001.152344	5600.043457
999.400391	5637.278809
997.648438	5715.864258
995.896484	5586.196289
994.142578	5554.968262
992.388672	5622.112793
990.634766	5635.069824
988.878906	5613.824219
987.125000	5603.983887
985.369141	5718.050781
983.613281	5587.163086
981.857422	5711.144531
980.099609	5624.436523
978.343750	5597.527832
976.585938	5668.785645
974.828125	5698.766113
973.070313	5589.388672
971.310547	5606.578613
969.552734	5520.011230
967.792969	5518.736328
966.033203	5584.228027
964.273438	5547.432129
962.511719	5539.050781
960.750000	5620.105957
958.990234	5569.133301
957.226563	5665.750977
955.464844	5623.301270
953.703125	5529.813477
951.939453	5565.400391
950.175781	5494.649902
948.412109	5425.348633
946.648438	5540.282227
944.882813	5540.416016
943.117188	5421.580078
941.351563	5373.597168
939.585938	5454.459473
937.820313	5416.396973
936.052734	5400.991699
934.285156	5418.129883
932.517578	5391.415527
930.750000	5309.567383
928.982422	5390.328125
927.212891	5336.783691
925.443359	5478.259766
923.673828	5375.274414
921.904297	5300.583496
920.132813	5487.152832
918.361328	5398.352539
916.591797	5353.345703
914.818359	5305.537109
913.046875	5305.714844
911.275391	5229.730469
909.501953	5304.657715
907.728516	5287.916992
905.955078	5340.244629
904.179688	5237.548340
902.406250	5392.700684
900.630859	5443.557129
898.855469	5436.657715
897.080078	5369.226563
895.302734	5344.049805
893.525391	5394.868164
891.750000	5321.864746
889.970703	5360.005371
888.193359	5393.909668
886.416016	5460.130371
884.636719	5281.767578
882.857422	5387.326660
881.078125	5415.571289
879.296875	5303.353027
877.517578	5368.111328
875.736328	5240.513184
873.955078	5202.798828
872.173828	5188.955078
870.390625	5180.729004
868.609375	5232.814941
866.826172	5147.460449
865.042969	5182.706543
863.259766	5191.305664
861.474609	5240.536133
859.689453	5075.407227
857.904297	5172.259277
856.119141	5221.458008
854.333984	5109.644043
852.546875	5052.465332
850.761719	5096.059082
848.974609	5220.769043
847.185547	5257.308594
845.398438	5074.303223
843.609375	5136.021973
841.822266	5196.313965
840.031250	5249.590332
838.242188	5054.183594
836.453125	5135.399902
834.662109	5188.651855
832.871094	5079.945313
831.080078	5088.523926
829.289063	5048.261230
827.496094	5073.582031
825.703125	5044.498535
823.910156	4924.795898
822.117188	5060.252930
820.324219	5113.418457
818.529297	5087.137695
816.734375	5048.331055
814.939453	4948.263672
813.144531	5005.581055
811.347656	4965.427734
809.550781	4936.426270
807.755859	5039.620605
805.957031	4995.312988
804.160156	5002.482910
802.361328	4909.539063
800.564453	4952.867188
798.765625	4836.352051
796.964844	4879.676270
795.166016	5114.675293
793.365234	4991.259277
791.564453	5048.398926
789.763672	5015.283691
787.962891	5007.163574
786.160156	4960.197754
784.359375	4945.158203
782.556641	5039.683105
780.751953	4890.141602
778.949219	4905.623047
777.144531	4825.474121
775.339844	4950.417480
773.535156	4906.310059
771.730469	4892.688965
769.925781	4984.298340
768.119141	4960.975586
766.312500	4901.682129
764.505859	4972.469727
762.697266	4892.452637
760.890625	4885.766113
759.082031	4968.949219
757.273438	4875.166016
755.464844	4926.527344
753.654297	4930.890137
751.845703	4925.581543
750.035156	4918.894043
748.224609	4988.142578
746.412109	5160.879395
744.601563	5082.381836
742.789063	5111.532227
740.976563	5078.599609
739.164063	5078.777344
737.349609	5270.587402
735.537109	5445.766602
733.722656	5630.507813
731.908203	5820.672363
730.091797	5952.897461
728.277344	5824.802246
726.460938	5491.639648
724.644531	5325.175293
722.828125	5215.206543
721.009766	5139.682617
719.193359	5084.825195
717.375000	5061.619629
715.556641	4951.815430
713.736328	4886.044922
711.917969	4930.231445
710.097656	4867.243652
708.277344	4867.463379
706.457031	4788.041992
704.636719	4942.031250
702.814453	4835.179688
700.992188	4846.381836
699.169922	4893.245605
697.347656	4686.361816
695.523438	4773.004395
693.699219	4760.904785
691.875000	4814.595215
690.050781	4795.639648
688.226563	4820.528320
686.400391	4865.948242
684.574219	4864.792480
682.748047	4884.170410
680.921875	4721.520508
679.095703	4918.792480
677.267578	4815.030762
675.439453	4790.637695
673.611328	4837.353027
671.781250	4871.743652
669.953125	4852.819336
668.123047	4975.997559
666.292969	4970.716309
664.460938	5017.331543
662.630859	4997.023926
660.798828	4960.345703
658.966797	4981.000488
657.134766	5000.280273
655.302734	5065.927246
653.468750	5023.811035
651.634766	5032.158691
649.800781	5003.700195
647.966797	4994.333008
646.130859	5016.304688
644.294922	4987.869141
642.458984	4947.190918
640.623047	5003.191895
638.787109	4966.612305
636.949219	4847.042480
635.111328	4835.004395
633.273438	4774.007324
631.435547	4806.864258
629.595703	4763.575684
627.757813	4747.489746
625.917969	4773.534668
624.076172	4785.981445
622.236328	4797.063965
620.394531	4825.792969
618.552734	4758.123535
616.710938	4676.914063
614.869141	4659.516113
613.025391	4685.535645
611.183594	4718.323730
609.339844	4608.725586
607.494141	4537.135742
605.650391	4640.408203
603.804688	4639.300781
601.958984	4589.427734
600.113281	4577.498047
598.267578	4576.405273
596.419922	4541.471680
594.572266	4516.027832
592.724609	4485.183594
590.876953	4585.563477
589.027344	4619.629395
587.179688	4607.709961
585.330078	4479.549316
583.480469	4401.450195
581.628906	4477.409180
579.779297	4483.093262
577.927734	4495.526367
576.076172	4566.007324
574.222656	4466.382813
572.371094	4496.353027
570.517578	4483.136230
568.664063	4533.319336
566.810547	4474.250977
564.955078	4461.047852
563.101563	4433.024902
561.246094	4471.042969
559.390625	4382.406738
557.533203	4342.299805
555.677734	4459.757324
553.820313	4368.493652
551.962891	4409.171875
550.105469	4311.235840
548.246094	4351.907227
546.386719	4354.901367
544.527344	4365.960938
542.667969	4411.966797
540.808594	4445.854492
538.947266	4360.140625
537.085938	4406.113770
535.224609	4474.895996
533.363281	4484.566406
531.500000	4333.148438
529.638672	4290.508301
527.775391	4266.671875
525.910156	4434.666992
524.046875	4433.605469
522.181641	4498.241211
520.316406	4742.464355
518.451172	4699.785645
516.585938	4458.836914
514.718750	4396.153809
512.851563	4336.178223
510.984375	4353.883789
509.117188	4297.961914
507.250000	4283.550781
505.380859	4297.241699
503.511719	4253.410645
501.642578	4240.356934
499.771484	4264.742676
497.902344	4188.872070
496.031250	4186.532715
494.160156	4256.334961
492.287109	4153.807617
490.416016	4128.776855
488.542969	4126.453125
486.669922	4150.823242
484.796875	4207.205566
482.921875	4238.214355
481.046875	4159.843750
479.171875	4182.848145
477.296875	4227.170410
475.421875	4222.159180
473.544922	4218.482910
471.667969	4164.187500
469.791016	4185.830078
467.914063	4175.506836
466.035156	4122.590820
464.156250	4140.234863
462.277344	4188.471680
460.398438	4045.136719
458.519531	4100.021973
456.638672	4075.107422
454.757813	4114.008301
452.876953	4073.154297
450.994141	4028.334229
449.113281	3996.818115
447.230469	4108.737793
445.347656	4073.233887
443.462891	4021.819092
441.580078	3999.622803
439.695313	3990.704102
437.810547	3981.789307
435.925781	4092.224121
434.039063	3995.789795
432.152344	4001.459229
430.267578	3993.874512
428.378906	4030.011475
426.492188	4003.880615
424.603516	3964.520508
422.714844	4073.448730
420.826172	4073.796143
418.937500	4001.366699
417.046875	3928.971924
415.158203	3962.416992
413.265625	3913.866211
411.375000	4020.005127
409.484375	3964.855225
407.591797	4060.360107
405.699219	3941.819336
403.806641	3956.722656
401.912109	3913.523193
400.019531	3969.346924
